[{"STUDYID":"CDISCPILOT01","USUBJID":"01-701-1015","DOMAIN":"ADAE","AESEQ":1,"AETERM":"APPLICATION SITE ERYTHEMA","AELLT":"APPLICATION SITE REDNESS","AELLTCD":null,"AEDECOD":"APPLICATION SITE ERYTHEMA","AEPTCD":null,"AEHLT":"HLT_0617","AEHLTCD":null,"AEHLGT":"HLGT_0152","AEHLGTCD":null,"AEBODSYS":"GENERAL DISORDERS AND ADMINISTRATION SITE CONDITIONS","AEBDSYCD":null,"AESOC":"GENERAL DISORDERS AND ADMINISTRATION SITE CONDITIONS","AESOCCD":null,"ASTDT":"2014-01-03","ASTDY":2,"AENDT":null,"AENDY":null,"AESEV":"MILD","AESEVN":1,"AESER":"N","AESERF":"N","AEACN":"","AEACNN":null,"AEREL":"PROBABLE","AEOUT":"NOT RECOVERED/NOT RESOLVED","AESCONG":"N","AESDISAB":"N","AESDTH":"N","AESDTHFL":"N","AESHOSP":"N","AESLIFE":"N","AESOD":"N","TRTEMFL":"Y","DERM_FL":"N","TRT01A":"Placebo","TRT01AN":1,"SAFFL":"Y","ITTFL":"Y","SITEID":"701","AGE":63,"SEX":"F","RACE":"WHITE","ARMCD":"Pbo","TRTSDT":"2014-01-02","TRTEDT":"2014-07-02"},{"STUDYID":"CDISCPILOT01","USUBJID":"01-701-1015","DOMAIN":"ADAE","AESEQ":2,"AETERM":"APPLICATION SITE PRURITUS","AELLT":"APPLICATION SITE ITCHING","AELLTCD":null,"AEDECOD":"APPLICATION SITE PRURITUS","AEPTCD":null,"AEHLT":"HLT_0317","AEHLTCD":null,"AEHLGT":"HLGT_0338","AEHLGTCD":null,"AEBODSYS":"GENERAL DISORDERS AND ADMINISTRATION SITE CONDITIONS","AEBDSYCD":null,"AESOC":"GENERAL DISORDERS AND ADMINISTRATION SITE CONDITIONS","AESOCCD":null,"ASTDT":"2014-01-03","ASTDY":2,"AENDT":null,"AENDY":null,"AESEV":"MILD","AESEVN":1,"AESER":"N","AESERF":"N","AEACN":"","AEACNN":null,"AEREL":"PROBABLE","AEOUT":"NOT RECOVERED/NOT RESOLVED","AESCONG":"N","AESDISAB":"N","AESDTH":"N","AESDTHFL":"N","AESHOSP":"N","AESLIFE":"N","AESOD":"N","TRTEMFL":"Y","DERM_FL":"N","TRT01A":"Placebo","TRT01AN":1,"SAFFL":"Y","ITTFL":"Y","SITEID":"701","AGE":63,"SEX":"F","RACE":"WHITE","ARMCD":"Pbo","TRTSDT":"2014-01-02","TRTEDT":"2014-07-02"},{"STUDYID":"CDISCPILOT01","USUBJID":"01-701-1015","DOMAIN":"ADAE","AESEQ":3,"AETERM":"DIARRHOEA","AELLT":"DIARRHEA","AELLTCD":null,"AEDECOD":"DIARRHOEA","AEPTCD":null,"AEHLT":"HLT_0148","AEHLTCD":null,"AEHLGT":"HLGT_0588","AEHLGTCD":null,"AEBODSYS":"GASTROINTESTINAL DISORDERS","AEBDSYCD":null,"AESOC":"GASTROINTESTINAL DISORDERS","AESOCCD":null,"ASTDT":"2014-01-09","ASTDY":8,"AENDT":"2014-01-11","AENDY":10,"AESEV":"MILD","AESEVN":1,"AESER":"N","AESERF":"N","AEACN":"","AEACNN":null,"AEREL":"REMOTE","AEOUT":"RECOVERED/RESOLVED","AESCONG":"N","AESDISAB":"N","AESDTH":"N","AESDTHFL":"N","AESHOSP":"N","AESLIFE":"N","AESOD":"N","TRTEMFL":"Y","DERM_FL":"N","TRT01A":"Placebo","TRT01AN":1,"SAFFL":"Y","ITTFL":"Y","SITEID":"701","AGE":63,"SEX":"F","RACE":"WHITE","ARMCD":"Pbo","TRTSDT":"2014-01-02","TRTEDT":"2014-07-02"},{"STUDYID":"CDISCPILOT01","USUBJID":"01-701-1023","DOMAIN":"ADAE","AESEQ":1,"AETERM":"ERYTHEMA","AELLT":"ERYTHEMA","AELLTCD":null,"AEDECOD":"ERYTHEMA","AEPTCD":null,"AEHLT":"HLT_0284","AEHLTCD":null,"AEHLGT":"HLGT_0192","AEHLGTCD":null,"AEBODSYS":"SKIN AND SUBCUTANEOUS TISSUE DISORDERS","AEBDSYCD":null,"AESOC":"SKIN AND SUBCUTANEOUS TISSUE DISORDERS","AESOCCD":null,"ASTDT":"2012-08-07","ASTDY":3,"AENDT":"2012-08-30","AENDY":26,"AESEV":"MILD","AESEVN":1,"AESER":"N","AESERF":"N","AEACN":"","AEACNN":null,"AEREL":"POSSIBLE","AEOUT":"NOT RECOVERED/NOT RESOLVED","AESCONG":"N","AESDISAB":"N","AESDTH":"N","AESDTHFL":"N","AESHOSP":"N","AESLIFE":"N","AESOD":"N","TRTEMFL":"Y","DERM_FL":"Y","TRT01A":"Placebo","TRT01AN":1,"SAFFL":"Y","ITTFL":"Y","SITEID":"701","AGE":64,"SEX":"M","RACE":"WHITE","ARMCD":"Pbo","TRTSDT":"2012-08-05","TRTEDT":"2012-09-01"},{"STUDYID":"CDISCPILOT01","USUBJID":"01-701-1023","DOMAIN":"ADAE","AESEQ":2,"AETERM":"ERYTHEMA","AELLT":"LOCALIZED ERYTHEMA","AELLTCD":null,"AEDECOD":"ERYTHEMA","AEPTCD":null,"AEHLT":"HLT_0284","AEHLTCD":null,"AEHLGT":"HLGT_0192","AEHLGTCD":null,"AEBODSYS":"SKIN AND SUBCUTANEOUS TISSUE DISORDERS","AEBDSYCD":null,"AESOC":"SKIN AND SUBCUTANEOUS TISSUE DISORDERS","AESOCCD":null,"ASTDT":"2012-08-07","ASTDY":3,"AENDT":null,"AENDY":null,"AESEV":"MODERATE","AESEVN":2,"AESER":"N","AESERF":"N","AEACN":"","AEACNN":null,"AEREL":"PROBABLE","AEOUT":"NOT RECOVERED/NOT RESOLVED","AESCONG":"N","AESDISAB":"N","AESDTH":"N","AESDTHFL":"N","AESHOSP":"N","AESLIFE":"N","AESOD":"N","TRTEMFL":"Y","DERM_FL":"Y","TRT01A":"Placebo","TRT01AN":1,"SAFFL":"Y","ITTFL":"Y","SITEID":"701","AGE":64,"SEX":"M","RACE":"WHITE","ARMCD":"Pbo","TRTSDT":"2012-08-05","TRTEDT":"2012-09-01"},{"STUDYID":"CDISCPILOT01","USUBJID":"01-701-1023","DOMAIN":"ADAE","AESEQ":3,"AETERM":"ATRIOVENTRICULAR BLOCK SECOND DEGREE","AELLT":"AV BLOCK SECOND DEGREE","AELLTCD":null,"AEDECOD":"ATRIOVENTRICULAR BLOCK SECOND DEGREE","AEPTCD":null,"AEHLT":"HLT_0415","AEHLTCD":null,"AEHLGT":"HLGT_0086","AEHLGTCD":null,"AEBODSYS":"CARDIAC DISORDERS","AEBDSYCD":null,"AESOC":"CARDIAC DISORDERS","AESOCCD":null,"ASTDT":"2012-08-26","ASTDY":22,"AENDT":null,"AENDY":null,"AESEV":"MILD","AESEVN":1,"AESER":"N","AESERF":"N","AEACN":"","AEACNN":null,"AEREL":"POSSIBLE","AEOUT":"NOT RECOVERED/NOT RESOLVED","AESCONG":"N","AESDISAB":"N","AESDTH":"N","AESDTHFL":"N","AESHOSP":"N","AESLIFE":"N","AESOD":"N","TRTEMFL":"Y","DERM_FL":"N","TRT01A":"Placebo","TRT01AN":1,"SAFFL":"Y","ITTFL":"Y","SITEID":"701","AGE":64,"SEX":"M","RACE":"WHITE","ARMCD":"Pbo","TRTSDT":"2012-08-05","TRTEDT":"2012-09-01"},{"STUDYID":"CDISCPILOT01","USUBJID":"01-701-1023","DOMAIN":"ADAE","AESEQ":4,"AETERM":"ERYTHEMA","AELLT":"ERYTHEMA","AELLTCD":null,"AEDECOD":"ERYTHEMA","AEPTCD":null,"AEHLT":"HLT_0284","AEHLTCD":null,"AEHLGT":"HLGT_0192","AEHLGTCD":null,"AEBODSYS":"SKIN AND SUBCUTANEOUS TISSUE DISORDERS","AEBDSYCD":null,"AESOC":"SKIN AND SUBCUTANEOUS TISSUE DISORDERS","AESOCCD":null,"ASTDT":"2012-08-07","ASTDY":3,"AENDT":"2012-08-30","AENDY":26,"AESEV":"MILD","AESEVN":1,"AESER":"N","AESERF":"N","AEACN":"","AEACNN":null,"AEREL":"POSSIBLE","AEOUT":"RECOVERED/RESOLVED","AESCONG":"N","AESDISAB":"N","AESDTH":"N","AESDTHFL":"N","AESHOSP":"N","AESLIFE":"N","AESOD":"N","TRTEMFL":"Y","DERM_FL":"Y","TRT01A":"Placebo","TRT01AN":1,"SAFFL":"Y","ITTFL":"Y","SITEID":"701","AGE":64,"SEX":"M","RACE":"WHITE","ARMCD":"Pbo","TRTSDT":"2012-08-05","TRTEDT":"2012-09-01"},{"STUDYID":"CDISCPILOT01","USUBJID":"01-701-1028","DOMAIN":"ADAE","AESEQ":1,"AETERM":"APPLICATION SITE ERYTHEMA","AELLT":"APPLICATION SITE ERYTHEMA","AELLTCD":null,"AEDECOD":"APPLICATION SITE ERYTHEMA","AEPTCD":null,"AEHLT":"HLT_0617","AEHLTCD":null,"AEHLGT":"HLGT_0152","AEHLGTCD":null,"AEBODSYS":"GENERAL DISORDERS AND ADMINISTRATION SITE CONDITIONS","AEBDSYCD":null,"AESOC":"GENERAL DISORDERS AND ADMINISTRATION SITE CONDITIONS","AESOCCD":null,"ASTDT":"2013-07-21","ASTDY":3,"AENDT":null,"AENDY":null,"AESEV":"MILD","AESEVN":1,"AESER":"N","AESERF":"N","AEACN":"","AEACNN":null,"AEREL":"POSSIBLE","AEOUT":"NOT RECOVERED/NOT RESOLVED","AESCONG":"N","AESDISAB":"N","AESDTH":"N","AESDTHFL":"N","AESHOSP":"N","AESLIFE":"N","AESOD":"N","TRTEMFL":"Y","DERM_FL":"N","TRT01A":"Xanomeline High Dose","TRT01AN":3,"SAFFL":"Y","ITTFL":"Y","SITEID":"701","AGE":71,"SEX":"M","RACE":"WHITE","ARMCD":"Xan_Hi","TRTSDT":"2013-07-19","TRTEDT":"2014-01-14"},{"STUDYID":"CDISCPILOT01","USUBJID":"01-701-1028","DOMAIN":"ADAE","AESEQ":2,"AETERM":"APPLICATION SITE PRURITUS","AELLT":"APPLICATION SITE ITCHING","AELLTCD":null,"AEDECOD":"APPLICATION SITE PRURITUS","AEPTCD":null,"AEHLT":"HLT_0317","AEHLTCD":null,"AEHLGT":"HLGT_0338","AEHLGTCD":null,"AEBODSYS":"GENERAL DISORDERS AND ADMINISTRATION SITE CONDITIONS","AEBDSYCD":null,"AESOC":"GENERAL DISORDERS AND ADMINISTRATION SITE CONDITIONS","AESOCCD":null,"ASTDT":"2013-08-08","ASTDY":21,"AENDT":null,"AENDY":null,"AESEV":"MILD","AESEVN":1,"AESER":"N","AESERF":"N","AEACN":"","AEACNN":null,"AEREL":"PROBABLE","AEOUT":"NOT RECOVERED/NOT RESOLVED","AESCONG":"N","AESDISAB":"N","AESDTH":"N","AESDTHFL":"N","AESHOSP":"N","AESLIFE":"N","AESOD":"N","TRTEMFL":"Y","DERM_FL":"N","TRT01A":"Xanomeline High Dose","TRT01AN":3,"SAFFL":"Y","ITTFL":"Y","SITEID":"701","AGE":71,"SEX":"M","RACE":"WHITE","ARMCD":"Xan_Hi","TRTSDT":"2013-07-19","TRTEDT":"2014-01-14"},{"STUDYID":"CDISCPILOT01","USUBJID":"01-701-1034","DOMAIN":"ADAE","AESEQ":1,"AETERM":"APPLICATION SITE PRURITUS","AELLT":"APPLICATION SITE ITCHING","AELLTCD":null,"AEDECOD":"APPLICATION SITE PRURITUS","AEPTCD":null,"AEHLT":"HLT_0317","AEHLTCD":null,"AEHLGT":"HLGT_0338","AEHLGTCD":null,"AEBODSYS":"GENERAL DISORDERS AND ADMINISTRATION SITE CONDITIONS","AEBDSYCD":null,"AESOC":"GENERAL DISORDERS AND ADMINISTRATION SITE CONDITIONS","AESOCCD":null,"ASTDT":"2014-08-27","ASTDY":58,"AENDT":null,"AENDY":null,"AESEV":"MILD","AESEVN":1,"AESER":"N","AESERF":"N","AEACN":"","AEACNN":null,"AEREL":"PROBABLE","AEOUT":"NOT RECOVERED/NOT RESOLVED","AESCONG":"N","AESDISAB":"N","AESDTH":"N","AESDTHFL":"N","AESHOSP":"N","AESLIFE":"N","AESOD":"N","TRTEMFL":"Y","DERM_FL":"N","TRT01A":"Xanomeline High Dose","TRT01AN":3,"SAFFL":"Y","ITTFL":"Y","SITEID":"701","AGE":77,"SEX":"F","RACE":"WHITE","ARMCD":"Xan_Hi","TRTSDT":"2014-07-01","TRTEDT":"2014-12-30"},{"STUDYID":"CDISCPILOT01","USUBJID":"01-701-1034","DOMAIN":"ADAE","AESEQ":2,"AETERM":"FATIGUE","AELLT":"FATIGUE","AELLTCD":null,"AEDECOD":"FATIGUE","AEPTCD":null,"AEHLT":"HLT_0043","AEHLTCD":null,"AEHLGT":"HLGT_0181","AEHLGTCD":null,"AEBODSYS":"GENERAL DISORDERS AND ADMINISTRATION SITE CONDITIONS","AEBDSYCD":null,"AESOC":"GENERAL DISORDERS AND ADMINISTRATION SITE CONDITIONS","AESOCCD":null,"ASTDT":"2014-11-02","ASTDY":125,"AENDT":null,"AENDY":null,"AESEV":"MILD","AESEVN":1,"AESER":"N","AESERF":"N","AEACN":"","AEACNN":null,"AEREL":"POSSIBLE","AEOUT":"NOT RECOVERED/NOT RESOLVED","AESCONG":"N","AESDISAB":"N","AESDTH":"N","AESDTHFL":"N","AESHOSP":"N","AESLIFE":"N","AESOD":"N","TRTEMFL":"Y","DERM_FL":"N","TRT01A":"Xanomeline High Dose","TRT01AN":3,"SAFFL":"Y","ITTFL":"Y","SITEID":"701","AGE":77,"SEX":"F","RACE":"WHITE","ARMCD":"Xan_Hi","TRTSDT":"2014-07-01","TRTEDT":"2014-12-30"},{"STUDYID":"CDISCPILOT01","USUBJID":"01-701-1047","DOMAIN":"ADAE","AESEQ":1,"AETERM":"HIATUS HERNIA","AELLT":"HERNIA HIATAL","AELLTCD":null,"AEDECOD":"HIATUS HERNIA","AEPTCD":null,"AEHLT":"HLT_0159","AEHLTCD":null,"AEHLGT":"HLGT_0109","AEHLGTCD":null,"AEBODSYS":"GASTROINTESTINAL DISORDERS","AEBDSYCD":null,"AESOC":"GASTROINTESTINAL DISORDERS","AESOCCD":null,"ASTDT":"2013-02-12","ASTDY":1,"AENDT":"2013-02-12","AENDY":1,"AESEV":"MODERATE","AESEVN":2,"AESER":"N","AESERF":"N","AEACN":"","AEACNN":null,"AEREL":"NONE","AEOUT":"NOT RECOVERED/NOT RESOLVED","AESCONG":"N","AESDISAB":"N","AESDTH":"N","AESDTHFL":"N","AESHOSP":"N","AESLIFE":"N","AESOD":"N","TRTEMFL":"Y","DERM_FL":"N","TRT01A":"Placebo","TRT01AN":1,"SAFFL":"Y","ITTFL":"Y","SITEID":"701","AGE":85,"SEX":"F","RACE":"WHITE","ARMCD":"Pbo","TRTSDT":"2013-02-12","TRTEDT":"2013-03-09"},{"STUDYID":"CDISCPILOT01","USUBJID":"01-701-1047","DOMAIN":"ADAE","AESEQ":2,"AETERM":"HIATUS HERNIA","AELLT":"HERNIA HIATAL","AELLTCD":null,"AEDECOD":"HIATUS HERNIA","AEPTCD":null,"AEHLT":"HLT_0159","AEHLTCD":null,"AEHLGT":"HLGT_0109","AEHLGTCD":null,"AEBODSYS":"GASTROINTESTINAL DISORDERS","AEBDSYCD":null,"AESOC":"GASTROINTESTINAL DISORDERS","AESOCCD":null,"ASTDT":"2013-02-12","ASTDY":1,"AENDT":"2013-02-12","AENDY":1,"AESEV":"MODERATE","AESEVN":2,"AESER":"N","AESERF":"N","AEACN":"","AEACNN":null,"AEREL":"NONE","AEOUT":"RECOVERED/RESOLVED","AESCONG":"N","AESDISAB":"N","AESDTH":"N","AESDTHFL":"N","AESHOSP":"N","AESLIFE":"N","AESOD":"N","TRTEMFL":"Y","DERM_FL":"N","TRT01A":"Placebo","TRT01AN":1,"SAFFL":"Y","ITTFL":"Y","SITEID":"701","AGE":85,"SEX":"F","RACE":"WHITE","ARMCD":"Pbo","TRTSDT":"2013-02-12","TRTEDT":"2013-03-09"},{"STUDYID":"CDISCPILOT01","USUBJID":"01-701-1047","DOMAIN":"ADAE","AESEQ":3,"AETERM":"UPPER RESPIRATORY TRACT INFECTION","AELLT":"UPPER RESPIRATORY INFECTION","AELLTCD":null,"AEDECOD":"UPPER RESPIRATORY TRACT INFECTION","AEPTCD":null,"AEHLT":"HLT_0520","AEHLTCD":null,"AEHLGT":"HLGT_0489","AEHLGTCD":null,"AEBODSYS":"INFECTIONS AND INFESTATIONS","AEBDSYCD":null,"AESOC":"INFECTIONS AND INFESTATIONS","AESOCCD":null,"ASTDT":"2013-03-06","ASTDY":23,"AENDT":null,"AENDY":null,"AESEV":"MILD","AESEVN":1,"AESER":"N","AESERF":"N","AEACN":"","AEACNN":null,"AEREL":"NONE","AEOUT":"NOT RECOVERED/NOT RESOLVED","AESCONG":"N","AESDISAB":"N","AESDTH":"N","AESDTHFL":"N","AESHOSP":"N","AESLIFE":"N","AESOD":"N","TRTEMFL":"Y","DERM_FL":"N","TRT01A":"Placebo","TRT01AN":1,"SAFFL":"Y","ITTFL":"Y","SITEID":"701","AGE":85,"SEX":"F","RACE":"WHITE","ARMCD":"Pbo","TRTSDT":"2013-02-12","TRTEDT":"2013-03-09"},{"STUDYID":"CDISCPILOT01","USUBJID":"01-701-1047","DOMAIN":"ADAE","AESEQ":4,"AETERM":"BUNDLE BRANCH BLOCK LEFT","AELLT":"LEFT BUNDLE BRANCH BLOCK","AELLTCD":null,"AEDECOD":"BUNDLE BRANCH BLOCK LEFT","AEPTCD":null,"AEHLT":"HLT_0281","AEHLTCD":null,"AEHLGT":"HLGT_0721","AEHLGTCD":null,"AEBODSYS":"CARDIAC DISORDERS","AEBDSYCD":null,"AESOC":"CARDIAC DISORDERS","AESOCCD":null,"ASTDT":"2013-03-10","ASTDY":27,"AENDT":null,"AENDY":null,"AESEV":"MILD","AESEVN":1,"AESER":"N","AESERF":"N","AEACN":"","AEACNN":null,"AEREL":"NONE","AEOUT":"NOT RECOVERED/NOT RESOLVED","AESCONG":"N","AESDISAB":"N","AESDTH":"N","AESDTHFL":"N","AESHOSP":"N","AESLIFE":"N","AESOD":"N","TRTEMFL":"Y","DERM_FL":"N","TRT01A":"Placebo","TRT01AN":1,"SAFFL":"Y","ITTFL":"Y","SITEID":"701","AGE":85,"SEX":"F","RACE":"WHITE","ARMCD":"Pbo","TRTSDT":"2013-02-12","TRTEDT":"2013-03-09"},{"STUDYID":"CDISCPILOT01","USUBJID":"01-701-1097","DOMAIN":"ADAE","AESEQ":1,"AETERM":"ERYTHEMA","AELLT":"ERYTHEMA","AELLTCD":null,"AEDECOD":"ERYTHEMA","AEPTCD":null,"AEHLT":"HLT_0284","AEHLTCD":null,"AEHLGT":"HLGT_0192","AEHLGTCD":null,"AEBODSYS":"SKIN AND SUBCUTANEOUS TISSUE DISORDERS","AEBDSYCD":null,"AESOC":"SKIN AND SUBCUTANEOUS TISSUE DISORDERS","AESOCCD":null,"ASTDT":"2014-01-03","ASTDY":3,"AENDT":null,"AENDY":null,"AESEV":"MILD","AESEVN":1,"AESER":"N","AESERF":"N","AEACN":"","AEACNN":null,"AEREL":"POSSIBLE","AEOUT":"NOT RECOVERED/NOT RESOLVED","AESCONG":"N","AESDISAB":"N","AESDTH":"N","AESDTHFL":"N","AESHOSP":"N","AESLIFE":"N","AESOD":"N","TRTEMFL":"Y","DERM_FL":"Y","TRT01A":"Xanomeline Low Dose","TRT01AN":2,"SAFFL":"Y","ITTFL":"Y","SITEID":"701","AGE":68,"SEX":"M","RACE":"WHITE","ARMCD":"Xan_Lo","TRTSDT":"2014-01-01","TRTEDT":"2014-07-09"},{"STUDYID":"CDISCPILOT01","USUBJID":"01-701-1097","DOMAIN":"ADAE","AESEQ":2,"AETERM":"PRURITUS GENERALISED","AELLT":"GENERALIZED PRURITUS","AELLTCD":null,"AEDECOD":"PRURITUS GENERALISED","AEPTCD":null,"AEHLT":"HLT_0123","AEHLTCD":null,"AEHLGT":"HLGT_0689","AEHLGTCD":null,"AEBODSYS":"SKIN AND SUBCUTANEOUS TISSUE DISORDERS","AEBDSYCD":null,"AESOC":"SKIN AND SUBCUTANEOUS TISSUE DISORDERS","AESOCCD":null,"ASTDT":"2014-02-20","ASTDY":51,"AENDT":"2014-02-20","AENDY":51,"AESEV":"MODERATE","AESEVN":2,"AESER":"N","AESERF":"N","AEACN":"","AEACNN":null,"AEREL":"POSSIBLE","AEOUT":"RECOVERED/RESOLVED","AESCONG":"N","AESDISAB":"N","AESDTH":"N","AESDTHFL":"N","AESHOSP":"N","AESLIFE":"N","AESOD":"N","TRTEMFL":"Y","DERM_FL":"Y","TRT01A":"Xanomeline Low Dose","TRT01AN":2,"SAFFL":"Y","ITTFL":"Y","SITEID":"701","AGE":68,"SEX":"M","RACE":"WHITE","ARMCD":"Xan_Lo","TRTSDT":"2014-01-01","TRTEDT":"2014-07-09"},{"STUDYID":"CDISCPILOT01","USUBJID":"01-701-1097","DOMAIN":"ADAE","AESEQ":3,"AETERM":"APPLICATION SITE VESICLES","AELLT":"APPLICATION SITE BLISTER","AELLTCD":null,"AEDECOD":"APPLICATION SITE VESICLES","AEPTCD":null,"AEHLT":"HLT_0180","AEHLTCD":null,"AEHLGT":"HLGT_0576","AEHLGTCD":null,"AEBODSYS":"GENERAL DISORDERS AND ADMINISTRATION SITE CONDITIONS","AEBDSYCD":null,"AESOC":"GENERAL DISORDERS AND ADMINISTRATION SITE CONDITIONS","AESOCCD":null,"ASTDT":"2014-02-20","ASTDY":51,"AENDT":"2014-02-22","AENDY":53,"AESEV":"MILD","AESEVN":1,"AESER":"N","AESERF":"N","AEACN":"","AEACNN":null,"AEREL":"PROBABLE","AEOUT":"RECOVERED/RESOLVED","AESCONG":"N","AESDISAB":"N","AESDTH":"N","AESDTHFL":"N","AESHOSP":"N","AESLIFE":"N","AESOD":"N","TRTEMFL":"Y","DERM_FL":"N","TRT01A":"Xanomeline Low Dose","TRT01AN":2,"SAFFL":"Y","ITTFL":"Y","SITEID":"701","AGE":68,"SEX":"M","RACE":"WHITE","ARMCD":"Xan_Lo","TRTSDT":"2014-01-01","TRTEDT":"2014-07-09"},{"STUDYID":"CDISCPILOT01","USUBJID":"01-701-1097","DOMAIN":"ADAE","AESEQ":4,"AETERM":"APPLICATION SITE PRURITUS","AELLT":"APPLICATION SITE ITCHING","AELLTCD":null,"AEDECOD":"APPLICATION SITE PRURITUS","AEPTCD":null,"AEHLT":"HLT_0317","AEHLTCD":null,"AEHLGT":"HLGT_0338","AEHLGTCD":null,"AEBODSYS":"GENERAL DISORDERS AND ADMINISTRATION SITE CONDITIONS","AEBDSYCD":null,"AESOC":"GENERAL DISORDERS AND ADMINISTRATION SITE CONDITIONS","AESOCCD":null,"ASTDT":"2014-02-21","ASTDY":52,"AENDT":null,"AENDY":null,"AESEV":"MILD","AESEVN":1,"AESER":"N","AESERF":"N","AEACN":"","AEACNN":null,"AEREL":"POSSIBLE","AEOUT":"NOT RECOVERED/NOT RESOLVED","AESCONG":"N","AESDISAB":"N","AESDTH":"N","AESDTHFL":"N","AESHOSP":"N","AESLIFE":"N","AESOD":"N","TRTEMFL":"Y","DERM_FL":"N","TRT01A":"Xanomeline Low Dose","TRT01AN":2,"SAFFL":"Y","ITTFL":"Y","SITEID":"701","AGE":68,"SEX":"M","RACE":"WHITE","ARMCD":"Xan_Lo","TRTSDT":"2014-01-01","TRTEDT":"2014-07-09"},{"STUDYID":"CDISCPILOT01","USUBJID":"01-701-1097","DOMAIN":"ADAE","AESEQ":5,"AETERM":"PRURITUS GENERALISED","AELLT":"GENERALIZED PRURITUS","AELLTCD":null,"AEDECOD":"PRURITUS GENERALISED","AEPTCD":null,"AEHLT":"HLT_0123","AEHLTCD":null,"AEHLGT":"HLGT_0689","AEHLGTCD":null,"AEBODSYS":"SKIN AND SUBCUTANEOUS TISSUE DISORDERS","AEBDSYCD":null,"AESOC":"SKIN AND SUBCUTANEOUS TISSUE DISORDERS","AESOCCD":null,"ASTDT":"2014-03-21","ASTDY":80,"AENDT":"2014-03-21","AENDY":80,"AESEV":"MODERATE","AESEVN":2,"AESER":"N","AESERF":"N","AEACN":"","AEACNN":null,"AEREL":"POSSIBLE","AEOUT":"RECOVERED/RESOLVED","AESCONG":"N","AESDISAB":"N","AESDTH":"N","AESDTHFL":"N","AESHOSP":"N","AESLIFE":"N","AESOD":"N","TRTEMFL":"Y","DERM_FL":"Y","TRT01A":"Xanomeline Low Dose","TRT01AN":2,"SAFFL":"Y","ITTFL":"Y","SITEID":"701","AGE":68,"SEX":"M","RACE":"WHITE","ARMCD":"Xan_Lo","TRTSDT":"2014-01-01","TRTEDT":"2014-07-09"},{"STUDYID":"CDISCPILOT01","USUBJID":"01-701-1097","DOMAIN":"ADAE","AESEQ":6,"AETERM":"PRURITUS GENERALISED","AELLT":"GENERALIZED PRURITUS","AELLTCD":null,"AEDECOD":"PRURITUS GENERALISED","AEPTCD":null,"AEHLT":"HLT_0123","AEHLTCD":null,"AEHLGT":"HLGT_0689","AEHLGTCD":null,"AEBODSYS":"SKIN AND SUBCUTANEOUS TISSUE DISORDERS","AEBDSYCD":null,"AESOC":"SKIN AND SUBCUTANEOUS TISSUE DISORDERS","AESOCCD":null,"ASTDT":"2014-03-31","ASTDY":90,"AENDT":"2014-03-31","AENDY":90,"AESEV":"MODERATE","AESEVN":2,"AESER":"N","AESERF":"N","AEACN":"","AEACNN":null,"AEREL":"POSSIBLE","AEOUT":"RECOVERED/RESOLVED","AESCONG":"N","AESDISAB":"N","AESDTH":"N","AESDTHFL":"N","AESHOSP":"N","AESLIFE":"N","AESOD":"N","TRTEMFL":"Y","DERM_FL":"Y","TRT01A":"Xanomeline Low Dose","TRT01AN":2,"SAFFL":"Y","ITTFL":"Y","SITEID":"701","AGE":68,"SEX":"M","RACE":"WHITE","ARMCD":"Xan_Lo","TRTSDT":"2014-01-01","TRTEDT":"2014-07-09"},{"STUDYID":"CDISCPILOT01","USUBJID":"01-701-1097","DOMAIN":"ADAE","AESEQ":7,"AETERM":"PRURITUS GENERALISED","AELLT":"GENERALIZED PRURITUS","AELLTCD":null,"AEDECOD":"PRURITUS GENERALISED","AEPTCD":null,"AEHLT":"HLT_0123","AEHLTCD":null,"AEHLGT":"HLGT_0689","AEHLGTCD":null,"AEBODSYS":"SKIN AND SUBCUTANEOUS TISSUE DISORDERS","AEBDSYCD":null,"AESOC":"SKIN AND SUBCUTANEOUS TISSUE DISORDERS","AESOCCD":null,"ASTDT":"2014-04-19","ASTDY":109,"AENDT":"2014-04-20","AENDY":110,"AESEV":"MODERATE","AESEVN":2,"AESER":"N","AESERF":"N","AEACN":"","AEACNN":null,"AEREL":"POSSIBLE","AEOUT":"RECOVERED/RESOLVED","AESCONG":"N","AESDISAB":"N","AESDTH":"N","AESDTHFL":"N","AESHOSP":"N","AESLIFE":"N","AESOD":"N","TRTEMFL":"Y","DERM_FL":"Y","TRT01A":"Xanomeline Low Dose","TRT01AN":2,"SAFFL":"Y","ITTFL":"Y","SITEID":"701","AGE":68,"SEX":"M","RACE":"WHITE","ARMCD":"Xan_Lo","TRTSDT":"2014-01-01","TRTEDT":"2014-07-09"},{"STUDYID":"CDISCPILOT01","USUBJID":"01-701-1097","DOMAIN":"ADAE","AESEQ":8,"AETERM":"PHARYNGOLARYNGEAL PAIN","AELLT":"SORE THROAT","AELLTCD":null,"AEDECOD":"PHARYNGOLARYNGEAL PAIN","AEPTCD":null,"AEHLT":"HLT_0130","AEHLTCD":null,"AEHLGT":"HLGT_0402","AEHLGTCD":null,"AEBODSYS":"RESPIRATORY, THORACIC AND MEDIASTINAL DISORDERS","AEBDSYCD":null,"AESOC":"RESPIRATORY, THORACIC AND MEDIASTINAL DISORDERS","AESOCCD":null,"ASTDT":"2014-04-19","ASTDY":109,"AENDT":"2014-04-22","AENDY":112,"AESEV":"MILD","AESEVN":1,"AESER":"N","AESERF":"N","AEACN":"","AEACNN":null,"AEREL":"NONE","AEOUT":"RECOVERED/RESOLVED","AESCONG":"N","AESDISAB":"N","AESDTH":"N","AESDTHFL":"N","AESHOSP":"N","AESLIFE":"N","AESOD":"N","TRTEMFL":"Y","DERM_FL":"N","TRT01A":"Xanomeline Low Dose","TRT01AN":2,"SAFFL":"Y","ITTFL":"Y","SITEID":"701","AGE":68,"SEX":"M","RACE":"WHITE","ARMCD":"Xan_Lo","TRTSDT":"2014-01-01","TRTEDT":"2014-07-09"},{"STUDYID":"CDISCPILOT01","USUBJID":"01-701-1097","DOMAIN":"ADAE","AESEQ":9,"AETERM":"NASAL CONGESTION","AELLT":"NASAL CONGESTION","AELLTCD":null,"AEDECOD":"NASAL CONGESTION","AEPTCD":null,"AEHLT":"HLT_0118","AEHLTCD":null,"AEHLGT":"HLGT_0549","AEHLGTCD":null,"AEBODSYS":"RESPIRATORY, THORACIC AND MEDIASTINAL DISORDERS","AEBDSYCD":null,"AESOC":"RESPIRATORY, THORACIC AND MEDIASTINAL DISORDERS","AESOCCD":null,"ASTDT":"2014-04-19","ASTDY":109,"AENDT":"2014-04-22","AENDY":112,"AESEV":"MILD","AESEVN":1,"AESER":"N","AESERF":"N","AEACN":"","AEACNN":null,"AEREL":"NONE","AEOUT":"RECOVERED/RESOLVED","AESCONG":"N","AESDISAB":"N","AESDTH":"N","AESDTHFL":"N","AESHOSP":"N","AESLIFE":"N","AESOD":"N","TRTEMFL":"Y","DERM_FL":"N","TRT01A":"Xanomeline Low Dose","TRT01AN":2,"SAFFL":"Y","ITTFL":"Y","SITEID":"701","AGE":68,"SEX":"M","RACE":"WHITE","ARMCD":"Xan_Lo","TRTSDT":"2014-01-01","TRTEDT":"2014-07-09"},{"STUDYID":"CDISCPILOT01","USUBJID":"01-701-1097","DOMAIN":"ADAE","AESEQ":10,"AETERM":"APPLICATION SITE PRURITUS","AELLT":"APPLICATION SITE ITCHING","AELLTCD":null,"AEDECOD":"APPLICATION SITE PRURITUS","AEPTCD":null,"AEHLT":"HLT_0317","AEHLTCD":null,"AEHLGT":"HLGT_0338","AEHLGTCD":null,"AEBODSYS":"GENERAL DISORDERS AND ADMINISTRATION SITE CONDITIONS","AEBDSYCD":null,"AESOC":"GENERAL DISORDERS AND ADMINISTRATION SITE CONDITIONS","AESOCCD":null,"ASTDT":"2014-02-21","ASTDY":52,"AENDT":null,"AENDY":null,"AESEV":"MODERATE","AESEVN":2,"AESER":"N","AESERF":"N","AEACN":"","AEACNN":null,"AEREL":"POSSIBLE","AEOUT":"NOT RECOVERED/NOT RESOLVED","AESCONG":"N","AESDISAB":"N","AESDTH":"N","AESDTHFL":"N","AESHOSP":"N","AESLIFE":"N","AESOD":"N","TRTEMFL":"Y","DERM_FL":"N","TRT01A":"Xanomeline Low Dose","TRT01AN":2,"SAFFL":"Y","ITTFL":"Y","SITEID":"701","AGE":68,"SEX":"M","RACE":"WHITE","ARMCD":"Xan_Lo","TRTSDT":"2014-01-01","TRTEDT":"2014-07-09"},{"STUDYID":"CDISCPILOT01","USUBJID":"01-701-1111","DOMAIN":"ADAE","AESEQ":1,"AETERM":"ERYTHEMA","AELLT":"ERYTHEMA","AELLTCD":null,"AEDECOD":"ERYTHEMA","AEPTCD":null,"AEHLT":"HLT_0284","AEHLTCD":null,"AEHLGT":"HLGT_0192","AEHLGTCD":null,"AEBODSYS":"SKIN AND SUBCUTANEOUS TISSUE DISORDERS","AEBDSYCD":null,"AESOC":"SKIN AND SUBCUTANEOUS TISSUE DISORDERS","AESOCCD":null,"ASTDT":"2012-09-02","ASTDY":-5,"AENDT":"2012-09-07","AENDY":1,"AESEV":"MILD","AESEVN":1,"AESER":"N","AESERF":"N","AEACN":"","AEACNN":null,"AEREL":"NONE","AEOUT":"NOT RECOVERED/NOT RESOLVED","AESCONG":"N","AESDISAB":"N","AESDTH":"N","AESDTHFL":"N","AESHOSP":"N","AESLIFE":"N","AESOD":"N","TRTEMFL":"N","DERM_FL":"Y","TRT01A":"Xanomeline Low Dose","TRT01AN":2,"SAFFL":"Y","ITTFL":"Y","SITEID":"701","AGE":81,"SEX":"F","RACE":"WHITE","ARMCD":"Xan_Lo","TRTSDT":"2012-09-07","TRTEDT":"2012-09-16"},{"STUDYID":"CDISCPILOT01","USUBJID":"01-701-1111","DOMAIN":"ADAE","AESEQ":2,"AETERM":"PRURITUS","AELLT":"ITCHING","AELLTCD":null,"AEDECOD":"PRURITUS","AEPTCD":null,"AEHLT":"HLT_0778","AEHLTCD":null,"AEHLGT":"HLGT_0695","AEHLGTCD":null,"AEBODSYS":"SKIN AND SUBCUTANEOUS TISSUE DISORDERS","AEBDSYCD":null,"AESOC":"SKIN AND SUBCUTANEOUS TISSUE DISORDERS","AESOCCD":null,"ASTDT":"2012-09-02","ASTDY":-5,"AENDT":"2012-09-07","AENDY":1,"AESEV":"MILD","AESEVN":1,"AESER":"N","AESERF":"N","AEACN":"","AEACNN":null,"AEREL":"NONE","AEOUT":"NOT RECOVERED/NOT RESOLVED","AESCONG":"N","AESDISAB":"N","AESDTH":"N","AESDTHFL":"N","AESHOSP":"N","AESLIFE":"N","AESOD":"N","TRTEMFL":"N","DERM_FL":"Y","TRT01A":"Xanomeline Low Dose","TRT01AN":2,"SAFFL":"Y","ITTFL":"Y","SITEID":"701","AGE":81,"SEX":"F","RACE":"WHITE","ARMCD":"Xan_Lo","TRTSDT":"2012-09-07","TRTEDT":"2012-09-16"},{"STUDYID":"CDISCPILOT01","USUBJID":"01-701-1111","DOMAIN":"ADAE","AESEQ":3,"AETERM":"LOCALISED INFECTION","AELLT":"LOCALIZED INFECTION","AELLTCD":null,"AEDECOD":"LOCALISED INFECTION","AEPTCD":null,"AEHLT":"HLT_0435","AEHLTCD":null,"AEHLGT":"HLGT_0557","AEHLGTCD":null,"AEBODSYS":"INFECTIONS AND INFESTATIONS","AEBDSYCD":null,"AESOC":"INFECTIONS AND INFESTATIONS","AESOCCD":null,"ASTDT":"2012-07-08","ASTDY":-61,"AENDT":null,"AENDY":null,"AESEV":"MODERATE","AESEVN":2,"AESER":"N","AESERF":"N","AEACN":"","AEACNN":null,"AEREL":"NONE","AEOUT":"NOT RECOVERED/NOT RESOLVED","AESCONG":"N","AESDISAB":"N","AESDTH":"N","AESDTHFL":"N","AESHOSP":"N","AESLIFE":"N","AESOD":"N","TRTEMFL":"N","DERM_FL":"N","TRT01A":"Xanomeline Low Dose","TRT01AN":2,"SAFFL":"Y","ITTFL":"Y","SITEID":"701","AGE":81,"SEX":"F","RACE":"WHITE","ARMCD":"Xan_Lo","TRTSDT":"2012-09-07","TRTEDT":"2012-09-16"},{"STUDYID":"CDISCPILOT01","USUBJID":"01-701-1111","DOMAIN":"ADAE","AESEQ":4,"AETERM":"ERYTHEMA","AELLT":"ERYTHEMA","AELLTCD":null,"AEDECOD":"ERYTHEMA","AEPTCD":null,"AEHLT":"HLT_0284","AEHLTCD":null,"AEHLGT":"HLGT_0192","AEHLGTCD":null,"AEBODSYS":"SKIN AND SUBCUTANEOUS TISSUE DISORDERS","AEBDSYCD":null,"AESOC":"SKIN AND SUBCUTANEOUS TISSUE DISORDERS","AESOCCD":null,"ASTDT":"2012-09-02","ASTDY":-5,"AENDT":"2012-09-07","AENDY":1,"AESEV":"MILD","AESEVN":1,"AESER":"N","AESERF":"N","AEACN":"","AEACNN":null,"AEREL":"NONE","AEOUT":"RECOVERED/RESOLVED","AESCONG":"N","AESDISAB":"N","AESDTH":"N","AESDTHFL":"N","AESHOSP":"N","AESLIFE":"N","AESOD":"N","TRTEMFL":"N","DERM_FL":"Y","TRT01A":"Xanomeline Low Dose","TRT01AN":2,"SAFFL":"Y","ITTFL":"Y","SITEID":"701","AGE":81,"SEX":"F","RACE":"WHITE","ARMCD":"Xan_Lo","TRTSDT":"2012-09-07","TRTEDT":"2012-09-16"},{"STUDYID":"CDISCPILOT01","USUBJID":"01-701-1111","DOMAIN":"ADAE","AESEQ":5,"AETERM":"PRURITUS","AELLT":"ITCHING","AELLTCD":null,"AEDECOD":"PRURITUS","AEPTCD":null,"AEHLT":"HLT_0778","AEHLTCD":null,"AEHLGT":"HLGT_0695","AEHLGTCD":null,"AEBODSYS":"SKIN AND SUBCUTANEOUS TISSUE DISORDERS","AEBDSYCD":null,"AESOC":"SKIN AND SUBCUTANEOUS TISSUE DISORDERS","AESOCCD":null,"ASTDT":"2012-09-02","ASTDY":-5,"AENDT":"2012-09-07","AENDY":1,"AESEV":"MILD","AESEVN":1,"AESER":"N","AESERF":"N","AEACN":"","AEACNN":null,"AEREL":"NONE","AEOUT":"RECOVERED/RESOLVED","AESCONG":"N","AESDISAB":"N","AESDTH":"N","AESDTHFL":"N","AESHOSP":"N","AESLIFE":"N","AESOD":"N","TRTEMFL":"N","DERM_FL":"Y","TRT01A":"Xanomeline Low Dose","TRT01AN":2,"SAFFL":"Y","ITTFL":"Y","SITEID":"701","AGE":81,"SEX":"F","RACE":"WHITE","ARMCD":"Xan_Lo","TRTSDT":"2012-09-07","TRTEDT":"2012-09-16"},{"STUDYID":"CDISCPILOT01","USUBJID":"01-701-1111","DOMAIN":"ADAE","AESEQ":6,"AETERM":"MICTURITION URGENCY","AELLT":"URINARY URGENCY","AELLTCD":null,"AEDECOD":"MICTURITION URGENCY","AEPTCD":null,"AEHLT":"HLT_0294","AEHLTCD":null,"AEHLGT":"HLGT_0483","AEHLGTCD":null,"AEBODSYS":"RENAL AND URINARY DISORDERS","AEBDSYCD":null,"AESOC":"RENAL AND URINARY DISORDERS","AESOCCD":null,"ASTDT":"2012-09-07","ASTDY":1,"AENDT":null,"AENDY":null,"AESEV":"MILD","AESEVN":1,"AESER":"N","AESERF":"N","AEACN":"","AEACNN":null,"AEREL":"NONE","AEOUT":"NOT RECOVERED/NOT RESOLVED","AESCONG":"N","AESDISAB":"N","AESDTH":"N","AESDTHFL":"N","AESHOSP":"N","AESLIFE":"N","AESOD":"N","TRTEMFL":"Y","DERM_FL":"N","TRT01A":"Xanomeline Low Dose","TRT01AN":2,"SAFFL":"Y","ITTFL":"Y","SITEID":"701","AGE":81,"SEX":"F","RACE":"WHITE","ARMCD":"Xan_Lo","TRTSDT":"2012-09-07","TRTEDT":"2012-09-16"},{"STUDYID":"CDISCPILOT01","USUBJID":"01-701-1111","DOMAIN":"ADAE","AESEQ":7,"AETERM":"ARTHRALGIA","AELLT":"GENERALIZED JOINT PAIN","AELLTCD":null,"AEDECOD":"ARTHRALGIA","AEPTCD":null,"AEHLT":"HLT_0375","AEHLTCD":null,"AEHLGT":"HLGT_0610","AEHLGTCD":null,"AEBODSYS":"MUSCULOSKELETAL AND CONNECTIVE TISSUE DISORDERS","AEBDSYCD":null,"AESOC":"MUSCULOSKELETAL AND CONNECTIVE TISSUE DISORDERS","AESOCCD":null,"ASTDT":"2012-09-13","ASTDY":7,"AENDT":null,"AENDY":null,"AESEV":"MODERATE","AESEVN":2,"AESER":"N","AESERF":"N","AEACN":"","AEACNN":null,"AEREL":"NONE","AEOUT":"NOT RECOVERED/NOT RESOLVED","AESCONG":"N","AESDISAB":"N","AESDTH":"N","AESDTHFL":"N","AESHOSP":"N","AESLIFE":"N","AESOD":"N","TRTEMFL":"Y","DERM_FL":"N","TRT01A":"Xanomeline Low Dose","TRT01AN":2,"SAFFL":"Y","ITTFL":"Y","SITEID":"701","AGE":81,"SEX":"F","RACE":"WHITE","ARMCD":"Xan_Lo","TRTSDT":"2012-09-07","TRTEDT":"2012-09-16"},{"STUDYID":"CDISCPILOT01","USUBJID":"01-701-1111","DOMAIN":"ADAE","AESEQ":8,"AETERM":"CELLULITIS","AELLT":"CELLULITIS OF LEG","AELLTCD":null,"AEDECOD":"CELLULITIS","AEPTCD":null,"AEHLT":"HLT_0613","AEHLTCD":null,"AEHLGT":"HLGT_0066","AEHLGTCD":null,"AEBODSYS":"INFECTIONS AND INFESTATIONS","AEBDSYCD":null,"AESOC":"INFECTIONS AND INFESTATIONS","AESOCCD":null,"ASTDT":"2012-09-13","ASTDY":7,"AENDT":null,"AENDY":null,"AESEV":"MODERATE","AESEVN":2,"AESER":"N","AESERF":"N","AEACN":"","AEACNN":null,"AEREL":"NONE","AEOUT":"NOT RECOVERED/NOT RESOLVED","AESCONG":"N","AESDISAB":"N","AESDTH":"N","AESDTHFL":"N","AESHOSP":"N","AESLIFE":"N","AESOD":"N","TRTEMFL":"Y","DERM_FL":"N","TRT01A":"Xanomeline Low Dose","TRT01AN":2,"SAFFL":"Y","ITTFL":"Y","SITEID":"701","AGE":81,"SEX":"F","RACE":"WHITE","ARMCD":"Xan_Lo","TRTSDT":"2012-09-07","TRTEDT":"2012-09-16"},{"STUDYID":"CDISCPILOT01","USUBJID":"01-701-1115","DOMAIN":"ADAE","AESEQ":1,"AETERM":"APPLICATION SITE ERYTHEMA","AELLT":"APPLICATION SITE REDNESS","AELLTCD":null,"AEDECOD":"APPLICATION SITE ERYTHEMA","AEPTCD":null,"AEHLT":"HLT_0617","AEHLTCD":null,"AEHLGT":"HLGT_0152","AEHLGTCD":null,"AEBODSYS":"GENERAL DISORDERS AND ADMINISTRATION SITE CONDITIONS","AEBDSYCD":null,"AESOC":"GENERAL DISORDERS AND ADMINISTRATION SITE CONDITIONS","AESOCCD":null,"ASTDT":"2012-12-02","ASTDY":3,"AENDT":null,"AENDY":null,"AESEV":"MILD","AESEVN":1,"AESER":"N","AESERF":"N","AEACN":"","AEACNN":null,"AEREL":"PROBABLE","AEOUT":"NOT RECOVERED/NOT RESOLVED","AESCONG":"N","AESDISAB":"N","AESDTH":"N","AESDTHFL":"N","AESHOSP":"N","AESLIFE":"N","AESOD":"N","TRTEMFL":"Y","DERM_FL":"N","TRT01A":"Xanomeline Low Dose","TRT01AN":2,"SAFFL":"Y","ITTFL":"Y","SITEID":"701","AGE":84,"SEX":"M","RACE":"WHITE","ARMCD":"Xan_Lo","TRTSDT":"2012-11-30","TRTEDT":"2013-01-23"},{"STUDYID":"CDISCPILOT01","USUBJID":"01-701-1115","DOMAIN":"ADAE","AESEQ":2,"AETERM":"APPLICATION SITE PRURITUS","AELLT":"APPLICATION SITE ITCHING","AELLTCD":null,"AEDECOD":"APPLICATION SITE PRURITUS","AEPTCD":null,"AEHLT":"HLT_0317","AEHLTCD":null,"AEHLGT":"HLGT_0338","AEHLGTCD":null,"AEBODSYS":"GENERAL DISORDERS AND ADMINISTRATION SITE CONDITIONS","AEBDSYCD":null,"AESOC":"GENERAL DISORDERS AND ADMINISTRATION SITE CONDITIONS","AESOCCD":null,"ASTDT":"2012-12-02","ASTDY":3,"AENDT":null,"AENDY":null,"AESEV":"MILD","AESEVN":1,"AESER":"N","AESERF":"N","AEACN":"","AEACNN":null,"AEREL":"PROBABLE","AEOUT":"NOT RECOVERED/NOT RESOLVED","AESCONG":"N","AESDISAB":"N","AESDTH":"N","AESDTHFL":"N","AESHOSP":"N","AESLIFE":"N","AESOD":"N","TRTEMFL":"Y","DERM_FL":"N","TRT01A":"Xanomeline Low Dose","TRT01AN":2,"SAFFL":"Y","ITTFL":"Y","SITEID":"701","AGE":84,"SEX":"M","RACE":"WHITE","ARMCD":"Xan_Lo","TRTSDT":"2012-11-30","TRTEDT":"2013-01-23"},{"STUDYID":"CDISCPILOT01","USUBJID":"01-701-1115","DOMAIN":"ADAE","AESEQ":3,"AETERM":"APPLICATION SITE IRRITATION","AELLT":"APPLICATION SITE BURNING","AELLTCD":null,"AEDECOD":"APPLICATION SITE IRRITATION","AEPTCD":null,"AEHLT":"HLT_0061","AEHLTCD":null,"AEHLGT":"HLGT_0346","AEHLGTCD":null,"AEBODSYS":"GENERAL DISORDERS AND ADMINISTRATION SITE CONDITIONS","AEBDSYCD":null,"AESOC":"GENERAL DISORDERS AND ADMINISTRATION SITE CONDITIONS","AESOCCD":null,"ASTDT":"2012-12-26","ASTDY":27,"AENDT":"2012-12-26","AENDY":27,"AESEV":"MILD","AESEVN":1,"AESER":"N","AESERF":"N","AEACN":"","AEACNN":null,"AEREL":"POSSIBLE","AEOUT":"NOT RECOVERED/NOT RESOLVED","AESCONG":"N","AESDISAB":"N","AESDTH":"N","AESDTHFL":"N","AESHOSP":"N","AESLIFE":"N","AESOD":"N","TRTEMFL":"Y","DERM_FL":"N","TRT01A":"Xanomeline Low Dose","TRT01AN":2,"SAFFL":"Y","ITTFL":"Y","SITEID":"701","AGE":84,"SEX":"M","RACE":"WHITE","ARMCD":"Xan_Lo","TRTSDT":"2012-11-30","TRTEDT":"2013-01-23"},{"STUDYID":"CDISCPILOT01","USUBJID":"01-701-1115","DOMAIN":"ADAE","AESEQ":4,"AETERM":"APPLICATION SITE IRRITATION","AELLT":"APPLICATION SITE BURNING","AELLTCD":null,"AEDECOD":"APPLICATION SITE IRRITATION","AEPTCD":null,"AEHLT":"HLT_0061","AEHLTCD":null,"AEHLGT":"HLGT_0346","AEHLGTCD":null,"AEBODSYS":"GENERAL DISORDERS AND ADMINISTRATION SITE CONDITIONS","AEBDSYCD":null,"AESOC":"GENERAL DISORDERS AND ADMINISTRATION SITE CONDITIONS","AESOCCD":null,"ASTDT":"2012-12-26","ASTDY":27,"AENDT":"2012-12-26","AENDY":27,"AESEV":"MILD","AESEVN":1,"AESER":"N","AESERF":"N","AEACN":"","AEACNN":null,"AEREL":"POSSIBLE","AEOUT":"RECOVERED/RESOLVED","AESCONG":"N","AESDISAB":"N","AESDTH":"N","AESDTHFL":"N","AESHOSP":"N","AESLIFE":"N","AESOD":"N","TRTEMFL":"Y","DERM_FL":"N","TRT01A":"Xanomeline Low Dose","TRT01AN":2,"SAFFL":"Y","ITTFL":"Y","SITEID":"701","AGE":84,"SEX":"M","RACE":"WHITE","ARMCD":"Xan_Lo","TRTSDT":"2012-11-30","TRTEDT":"2013-01-23"},{"STUDYID":"CDISCPILOT01","USUBJID":"01-701-1115","DOMAIN":"ADAE","AESEQ":5,"AETERM":"APPLICATION SITE ERYTHEMA","AELLT":"APPLICATION SITE REDNESS","AELLTCD":null,"AEDECOD":"APPLICATION SITE ERYTHEMA","AEPTCD":null,"AEHLT":"HLT_0617","AEHLTCD":null,"AEHLGT":"HLGT_0152","AEHLGTCD":null,"AEBODSYS":"GENERAL DISORDERS AND ADMINISTRATION SITE CONDITIONS","AEBDSYCD":null,"AESOC":"GENERAL DISORDERS AND ADMINISTRATION SITE CONDITIONS","AESOCCD":null,"ASTDT":"2012-12-02","ASTDY":3,"AENDT":null,"AENDY":null,"AESEV":"MODERATE","AESEVN":2,"AESER":"N","AESERF":"N","AEACN":"","AEACNN":null,"AEREL":"PROBABLE","AEOUT":"NOT RECOVERED/NOT RESOLVED","AESCONG":"N","AESDISAB":"N","AESDTH":"N","AESDTHFL":"N","AESHOSP":"N","AESLIFE":"N","AESOD":"N","TRTEMFL":"Y","DERM_FL":"N","TRT01A":"Xanomeline Low Dose","TRT01AN":2,"SAFFL":"Y","ITTFL":"Y","SITEID":"701","AGE":84,"SEX":"M","RACE":"WHITE","ARMCD":"Xan_Lo","TRTSDT":"2012-11-30","TRTEDT":"2013-01-23"},{"STUDYID":"CDISCPILOT01","USUBJID":"01-701-1115","DOMAIN":"ADAE","AESEQ":6,"AETERM":"APPLICATION SITE PRURITUS","AELLT":"APPLICATION SITE ITCHING","AELLTCD":null,"AEDECOD":"APPLICATION SITE PRURITUS","AEPTCD":null,"AEHLT":"HLT_0317","AEHLTCD":null,"AEHLGT":"HLGT_0338","AEHLGTCD":null,"AEBODSYS":"GENERAL DISORDERS AND ADMINISTRATION SITE CONDITIONS","AEBDSYCD":null,"AESOC":"GENERAL DISORDERS AND ADMINISTRATION SITE CONDITIONS","AESOCCD":null,"ASTDT":"2012-12-02","ASTDY":3,"AENDT":null,"AENDY":null,"AESEV":"MODERATE","AESEVN":2,"AESER":"N","AESERF":"N","AEACN":"","AEACNN":null,"AEREL":"PROBABLE","AEOUT":"NOT RECOVERED/NOT RESOLVED","AESCONG":"N","AESDISAB":"N","AESDTH":"N","AESDTHFL":"N","AESHOSP":"N","AESLIFE":"N","AESOD":"N","TRTEMFL":"Y","DERM_FL":"N","TRT01A":"Xanomeline Low Dose","TRT01AN":2,"SAFFL":"Y","ITTFL":"Y","SITEID":"701","AGE":84,"SEX":"M","RACE":"WHITE","ARMCD":"Xan_Lo","TRTSDT":"2012-11-30","TRTEDT":"2013-01-23"},{"STUDYID":"CDISCPILOT01","USUBJID":"01-701-1115","DOMAIN":"ADAE","AESEQ":7,"AETERM":"FATIGUE","AELLT":"FATIGUE","AELLTCD":null,"AEDECOD":"FATIGUE","AEPTCD":null,"AEHLT":"HLT_0043","AEHLTCD":null,"AEHLGT":"HLGT_0181","AEHLGTCD":null,"AEBODSYS":"GENERAL DISORDERS AND ADMINISTRATION SITE CONDITIONS","AEBDSYCD":null,"AESOC":"GENERAL DISORDERS AND ADMINISTRATION SITE CONDITIONS","AESOCCD":null,"ASTDT":"2013-01-14","ASTDY":46,"AENDT":null,"AENDY":null,"AESEV":"MODERATE","AESEVN":2,"AESER":"N","AESERF":"N","AEACN":"","AEACNN":null,"AEREL":"REMOTE","AEOUT":"NOT RECOVERED/NOT RESOLVED","AESCONG":"N","AESDISAB":"N","AESDTH":"N","AESDTHFL":"N","AESHOSP":"N","AESLIFE":"N","AESOD":"N","TRTEMFL":"Y","DERM_FL":"N","TRT01A":"Xanomeline Low Dose","TRT01AN":2,"SAFFL":"Y","ITTFL":"Y","SITEID":"701","AGE":84,"SEX":"M","RACE":"WHITE","ARMCD":"Xan_Lo","TRTSDT":"2012-11-30","TRTEDT":"2013-01-23"},{"STUDYID":"CDISCPILOT01","USUBJID":"01-701-1115","DOMAIN":"ADAE","AESEQ":8,"AETERM":"APPLICATION SITE IRRITATION","AELLT":"APPLICATION SITE BURNING","AELLTCD":null,"AEDECOD":"APPLICATION SITE IRRITATION","AEPTCD":null,"AEHLT":"HLT_0061","AEHLTCD":null,"AEHLGT":"HLGT_0346","AEHLGTCD":null,"AEBODSYS":"GENERAL DISORDERS AND ADMINISTRATION SITE CONDITIONS","AEBDSYCD":null,"AESOC":"GENERAL DISORDERS AND ADMINISTRATION SITE CONDITIONS","AESOCCD":null,"ASTDT":"2013-01-19","ASTDY":51,"AENDT":null,"AENDY":null,"AESEV":"MODERATE","AESEVN":2,"AESER":"N","AESERF":"N","AEACN":"","AEACNN":null,"AEREL":"PROBABLE","AEOUT":"NOT RECOVERED/NOT RESOLVED","AESCONG":"N","AESDISAB":"N","AESDTH":"N","AESDTHFL":"N","AESHOSP":"N","AESLIFE":"N","AESOD":"N","TRTEMFL":"Y","DERM_FL":"N","TRT01A":"Xanomeline Low Dose","TRT01AN":2,"SAFFL":"Y","ITTFL":"Y","SITEID":"701","AGE":84,"SEX":"M","RACE":"WHITE","ARMCD":"Xan_Lo","TRTSDT":"2012-11-30","TRTEDT":"2013-01-23"},{"STUDYID":"CDISCPILOT01","USUBJID":"01-701-1115","DOMAIN":"ADAE","AESEQ":9,"AETERM":"APPLICATION SITE DERMATITIS","AELLT":"APPLICATION SITE RASH","AELLTCD":null,"AEDECOD":"APPLICATION SITE DERMATITIS","AEPTCD":null,"AEHLT":"HLT_0343","AEHLTCD":null,"AEHLGT":"HLGT_0241","AEHLGTCD":null,"AEBODSYS":"GENERAL DISORDERS AND ADMINISTRATION SITE CONDITIONS","AEBDSYCD":null,"AESOC":"GENERAL DISORDERS AND ADMINISTRATION SITE CONDITIONS","AESOCCD":null,"ASTDT":"2013-01-19","ASTDY":51,"AENDT":null,"AENDY":null,"AESEV":"MODERATE","AESEVN":2,"AESER":"N","AESERF":"N","AEACN":"","AEACNN":null,"AEREL":"PROBABLE","AEOUT":"NOT RECOVERED/NOT RESOLVED","AESCONG":"N","AESDISAB":"N","AESDTH":"N","AESDTHFL":"N","AESHOSP":"N","AESLIFE":"N","AESOD":"N","TRTEMFL":"Y","DERM_FL":"N","TRT01A":"Xanomeline Low Dose","TRT01AN":2,"SAFFL":"Y","ITTFL":"Y","SITEID":"701","AGE":84,"SEX":"M","RACE":"WHITE","ARMCD":"Xan_Lo","TRTSDT":"2012-11-30","TRTEDT":"2013-01-23"},{"STUDYID":"CDISCPILOT01","USUBJID":"01-701-1118","DOMAIN":"ADAE","AESEQ":1,"AETERM":"COUGH","AELLT":"COUGH","AELLTCD":null,"AEDECOD":"COUGH","AEPTCD":null,"AEHLT":"HLT_0701","AEHLTCD":null,"AEHLGT":"HLGT_0280","AEHLGTCD":null,"AEBODSYS":"RESPIRATORY, THORACIC AND MEDIASTINAL DISORDERS","AEBDSYCD":null,"AESOC":"RESPIRATORY, THORACIC AND MEDIASTINAL DISORDERS","AESOCCD":null,"ASTDT":null,"ASTDY":null,"AENDT":null,"AENDY":null,"AESEV":"MILD","AESEVN":1,"AESER":"N","AESERF":"N","AEACN":"","AEACNN":null,"AEREL":"NONE","AEOUT":"NOT RECOVERED/NOT RESOLVED","AESCONG":"N","AESDISAB":"N","AESDTH":"N","AESDTHFL":"N","AESHOSP":"N","AESLIFE":"N","AESOD":"N","TRTEMFL":"N","DERM_FL":"N","TRT01A":"Placebo","TRT01AN":1,"SAFFL":"Y","ITTFL":"Y","SITEID":"701","AGE":52,"SEX":"M","RACE":"WHITE","ARMCD":"Pbo","TRTSDT":"2014-03-12","TRTEDT":"2014-09-09"},{"STUDYID":"CDISCPILOT01","USUBJID":"01-701-1130","DOMAIN":"ADAE","AESEQ":1,"AETERM":"URINARY TRACT INFECTION","AELLT":"URINARY TRACT INFECTION","AELLTCD":null,"AEDECOD":"URINARY TRACT INFECTION","AEPTCD":null,"AEHLT":"HLT_0161","AEHLTCD":null,"AEHLGT":"HLGT_0093","AEHLGTCD":null,"AEBODSYS":"INFECTIONS AND INFESTATIONS","AEBDSYCD":null,"AESOC":"INFECTIONS AND INFESTATIONS","AESOCCD":null,"ASTDT":"2014-03-09","ASTDY":23,"AENDT":"2014-03-16","AENDY":30,"AESEV":"MILD","AESEVN":1,"AESER":"N","AESERF":"N","AEACN":"","AEACNN":null,"AEREL":"NONE","AEOUT":"NOT RECOVERED/NOT RESOLVED","AESCONG":"N","AESDISAB":"N","AESDTH":"N","AESDTHFL":"N","AESHOSP":"N","AESLIFE":"N","AESOD":"N","TRTEMFL":"Y","DERM_FL":"N","TRT01A":"Placebo","TRT01AN":1,"SAFFL":"Y","ITTFL":"Y","SITEID":"701","AGE":84,"SEX":"M","RACE":"WHITE","ARMCD":"Pbo","TRTSDT":"2014-02-15","TRTEDT":"2014-08-16"},{"STUDYID":"CDISCPILOT01","USUBJID":"01-701-1130","DOMAIN":"ADAE","AESEQ":2,"AETERM":"PYREXIA","AELLT":"FEVER","AELLTCD":null,"AEDECOD":"PYREXIA","AEPTCD":null,"AEHLT":"HLT_0310","AEHLTCD":null,"AEHLGT":"HLGT_0652","AEHLGTCD":null,"AEBODSYS":"GENERAL DISORDERS AND ADMINISTRATION SITE CONDITIONS","AEBDSYCD":null,"AESOC":"GENERAL DISORDERS AND ADMINISTRATION SITE CONDITIONS","AESOCCD":null,"ASTDT":"2014-03-09","ASTDY":23,"AENDT":"2014-03-09","AENDY":23,"AESEV":"MILD","AESEVN":1,"AESER":"N","AESERF":"N","AEACN":"","AEACNN":null,"AEREL":"NONE","AEOUT":"RECOVERED/RESOLVED","AESCONG":"N","AESDISAB":"N","AESDTH":"N","AESDTHFL":"N","AESHOSP":"N","AESLIFE":"N","AESOD":"N","TRTEMFL":"Y","DERM_FL":"N","TRT01A":"Placebo","TRT01AN":1,"SAFFL":"Y","ITTFL":"Y","SITEID":"701","AGE":84,"SEX":"M","RACE":"WHITE","ARMCD":"Pbo","TRTSDT":"2014-02-15","TRTEDT":"2014-08-16"},{"STUDYID":"CDISCPILOT01","USUBJID":"01-701-1130","DOMAIN":"ADAE","AESEQ":3,"AETERM":"URINARY TRACT INFECTION","AELLT":"URINARY TRACT INFECTION","AELLTCD":null,"AEDECOD":"URINARY TRACT INFECTION","AEPTCD":null,"AEHLT":"HLT_0161","AEHLTCD":null,"AEHLGT":"HLGT_0093","AEHLGTCD":null,"AEBODSYS":"INFECTIONS AND INFESTATIONS","AEBDSYCD":null,"AESOC":"INFECTIONS AND INFESTATIONS","AESOCCD":null,"ASTDT":"2014-03-09","ASTDY":23,"AENDT":"2014-03-16","AENDY":30,"AESEV":"MILD","AESEVN":1,"AESER":"N","AESERF":"N","AEACN":"","AEACNN":null,"AEREL":"NONE","AEOUT":"RECOVERED/RESOLVED","AESCONG":"N","AESDISAB":"N","AESDTH":"N","AESDTHFL":"N","AESHOSP":"N","AESLIFE":"N","AESOD":"N","TRTEMFL":"Y","DERM_FL":"N","TRT01A":"Placebo","TRT01AN":1,"SAFFL":"Y","ITTFL":"Y","SITEID":"701","AGE":84,"SEX":"M","RACE":"WHITE","ARMCD":"Pbo","TRTSDT":"2014-02-15","TRTEDT":"2014-08-16"},{"STUDYID":"CDISCPILOT01","USUBJID":"01-701-1130","DOMAIN":"ADAE","AESEQ":4,"AETERM":"EYE SWELLING","AELLT":"EYES SWOLLEN","AELLTCD":null,"AEDECOD":"EYE SWELLING","AEPTCD":null,"AEHLT":"HLT_0008","AEHLTCD":null,"AEHLGT":"HLGT_0466","AEHLGTCD":null,"AEBODSYS":"EYE DISORDERS","AEBDSYCD":null,"AESOC":"EYE DISORDERS","AESOCCD":null,"ASTDT":"2014-05-09","ASTDY":84,"AENDT":"2014-05-09","AENDY":84,"AESEV":"MILD","AESEVN":1,"AESER":"N","AESERF":"N","AEACN":"","AEACNN":null,"AEREL":"NONE","AEOUT":"RECOVERED/RESOLVED","AESCONG":"N","AESDISAB":"N","AESDTH":"N","AESDTHFL":"N","AESHOSP":"N","AESLIFE":"N","AESOD":"N","TRTEMFL":"Y","DERM_FL":"N","TRT01A":"Placebo","TRT01AN":1,"SAFFL":"Y","ITTFL":"Y","SITEID":"701","AGE":84,"SEX":"M","RACE":"WHITE","ARMCD":"Pbo","TRTSDT":"2014-02-15","TRTEDT":"2014-08-16"},{"STUDYID":"CDISCPILOT01","USUBJID":"01-701-1130","DOMAIN":"ADAE","AESEQ":5,"AETERM":"EYE ALLERGY","AELLT":"EYE ALLERGY","AELLTCD":null,"AEDECOD":"EYE ALLERGY","AEPTCD":null,"AEHLT":"HLT_0256","AEHLTCD":null,"AEHLGT":"HLGT_0071","AEHLGTCD":null,"AEBODSYS":"EYE DISORDERS","AEBDSYCD":null,"AESOC":"EYE DISORDERS","AESOCCD":null,"ASTDT":"2014-05-09","ASTDY":84,"AENDT":"2014-05-09","AENDY":84,"AESEV":"MILD","AESEVN":1,"AESER":"N","AESERF":"N","AEACN":"","AEACNN":null,"AEREL":"NONE","AEOUT":"RECOVERED/RESOLVED","AESCONG":"N","AESDISAB":"N","AESDTH":"N","AESDTHFL":"N","AESHOSP":"N","AESLIFE":"N","AESOD":"N","TRTEMFL":"Y","DERM_FL":"N","TRT01A":"Placebo","TRT01AN":1,"SAFFL":"Y","ITTFL":"Y","SITEID":"701","AGE":84,"SEX":"M","RACE":"WHITE","ARMCD":"Pbo","TRTSDT":"2014-02-15","TRTEDT":"2014-08-16"},{"STUDYID":"CDISCPILOT01","USUBJID":"01-701-1130","DOMAIN":"ADAE","AESEQ":6,"AETERM":"EYE PRURITUS","AELLT":"EYE ITCHING","AELLTCD":null,"AEDECOD":"EYE PRURITUS","AEPTCD":null,"AEHLT":"HLT_0523","AEHLTCD":null,"AEHLGT":"HLGT_0240","AEHLGTCD":null,"AEBODSYS":"EYE DISORDERS","AEBDSYCD":null,"AESOC":"EYE DISORDERS","AESOCCD":null,"ASTDT":"2014-05-22","ASTDY":97,"AENDT":null,"AENDY":null,"AESEV":"MILD","AESEVN":1,"AESER":"N","AESERF":"N","AEACN":"","AEACNN":null,"AEREL":"REMOTE","AEOUT":"NOT RECOVERED/NOT RESOLVED","AESCONG":"N","AESDISAB":"N","AESDTH":"N","AESDTHFL":"N","AESHOSP":"N","AESLIFE":"N","AESOD":"N","TRTEMFL":"Y","DERM_FL":"N","TRT01A":"Placebo","TRT01AN":1,"SAFFL":"Y","ITTFL":"Y","SITEID":"701","AGE":84,"SEX":"M","RACE":"WHITE","ARMCD":"Pbo","TRTSDT":"2014-02-15","TRTEDT":"2014-08-16"},{"STUDYID":"CDISCPILOT01","USUBJID":"01-701-1130","DOMAIN":"ADAE","AESEQ":7,"AETERM":"PRURITUS","AELLT":"ITCHING BOTH HANDS","AELLTCD":null,"AEDECOD":"PRURITUS","AEPTCD":null,"AEHLT":"HLT_0778","AEHLTCD":null,"AEHLGT":"HLGT_0695","AEHLGTCD":null,"AEBODSYS":"SKIN AND SUBCUTANEOUS TISSUE DISORDERS","AEBDSYCD":null,"AESOC":"SKIN AND SUBCUTANEOUS TISSUE DISORDERS","AESOCCD":null,"ASTDT":"2014-05-22","ASTDY":97,"AENDT":null,"AENDY":null,"AESEV":"MILD","AESEVN":1,"AESER":"N","AESERF":"N","AEACN":"","AEACNN":null,"AEREL":"REMOTE","AEOUT":"NOT RECOVERED/NOT RESOLVED","AESCONG":"N","AESDISAB":"N","AESDTH":"N","AESDTHFL":"N","AESHOSP":"N","AESLIFE":"N","AESOD":"N","TRTEMFL":"Y","DERM_FL":"Y","TRT01A":"Placebo","TRT01AN":1,"SAFFL":"Y","ITTFL":"Y","SITEID":"701","AGE":84,"SEX":"M","RACE":"WHITE","ARMCD":"Pbo","TRTSDT":"2014-02-15","TRTEDT":"2014-08-16"},{"STUDYID":"CDISCPILOT01","USUBJID":"01-701-1130","DOMAIN":"ADAE","AESEQ":8,"AETERM":"NASAL CONGESTION","AELLT":"NASAL CONGESTION","AELLTCD":null,"AEDECOD":"NASAL CONGESTION","AEPTCD":null,"AEHLT":"HLT_0118","AEHLTCD":null,"AEHLGT":"HLGT_0549","AEHLGTCD":null,"AEBODSYS":"RESPIRATORY, THORACIC AND MEDIASTINAL DISORDERS","AEBDSYCD":null,"AESOC":"RESPIRATORY, THORACIC AND MEDIASTINAL DISORDERS","AESOCCD":null,"ASTDT":"2014-05-22","ASTDY":97,"AENDT":null,"AENDY":null,"AESEV":"MILD","AESEVN":1,"AESER":"N","AESERF":"N","AEACN":"","AEACNN":null,"AEREL":"REMOTE","AEOUT":"NOT RECOVERED/NOT RESOLVED","AESCONG":"N","AESDISAB":"N","AESDTH":"N","AESDTHFL":"N","AESHOSP":"N","AESLIFE":"N","AESOD":"N","TRTEMFL":"Y","DERM_FL":"N","TRT01A":"Placebo","TRT01AN":1,"SAFFL":"Y","ITTFL":"Y","SITEID":"701","AGE":84,"SEX":"M","RACE":"WHITE","ARMCD":"Pbo","TRTSDT":"2014-02-15","TRTEDT":"2014-08-16"},{"STUDYID":"CDISCPILOT01","USUBJID":"01-701-1133","DOMAIN":"ADAE","AESEQ":1,"AETERM":"APPLICATION SITE ERYTHEMA","AELLT":"APPLICATION SITE REDNESS","AELLTCD":null,"AEDECOD":"APPLICATION SITE ERYTHEMA","AEPTCD":null,"AEHLT":"HLT_0617","AEHLTCD":null,"AEHLGT":"HLGT_0152","AEHLGTCD":null,"AEBODSYS":"GENERAL DISORDERS AND ADMINISTRATION SITE CONDITIONS","AEBDSYCD":null,"AESOC":"GENERAL DISORDERS AND ADMINISTRATION SITE CONDITIONS","AESOCCD":null,"ASTDT":"2012-12-27","ASTDY":61,"AENDT":null,"AENDY":null,"AESEV":"MILD","AESEVN":1,"AESER":"N","AESERF":"N","AEACN":"","AEACNN":null,"AEREL":"PROBABLE","AEOUT":"NOT RECOVERED/NOT RESOLVED","AESCONG":"N","AESDISAB":"N","AESDTH":"N","AESDTHFL":"N","AESHOSP":"N","AESLIFE":"N","AESOD":"N","TRTEMFL":"Y","DERM_FL":"N","TRT01A":"Xanomeline High Dose","TRT01AN":3,"SAFFL":"Y","ITTFL":"Y","SITEID":"701","AGE":81,"SEX":"F","RACE":"WHITE","ARMCD":"Xan_Hi","TRTSDT":"2012-10-28","TRTEDT":"2013-04-28"},{"STUDYID":"CDISCPILOT01","USUBJID":"01-701-1133","DOMAIN":"ADAE","AESEQ":2,"AETERM":"APPLICATION SITE PRURITUS","AELLT":"APPLICATION SITE ITCHING","AELLTCD":null,"AEDECOD":"APPLICATION SITE PRURITUS","AEPTCD":null,"AEHLT":"HLT_0317","AEHLTCD":null,"AEHLGT":"HLGT_0338","AEHLGTCD":null,"AEBODSYS":"GENERAL DISORDERS AND ADMINISTRATION SITE CONDITIONS","AEBDSYCD":null,"AESOC":"GENERAL DISORDERS AND ADMINISTRATION SITE CONDITIONS","AESOCCD":null,"ASTDT":"2012-12-27","ASTDY":61,"AENDT":null,"AENDY":null,"AESEV":"MILD","AESEVN":1,"AESER":"N","AESERF":"N","AEACN":"","AEACNN":null,"AEREL":"PROBABLE","AEOUT":"NOT RECOVERED/NOT RESOLVED","AESCONG":"N","AESDISAB":"N","AESDTH":"N","AESDTHFL":"N","AESHOSP":"N","AESLIFE":"N","AESOD":"N","TRTEMFL":"Y","DERM_FL":"N","TRT01A":"Xanomeline High Dose","TRT01AN":3,"SAFFL":"Y","ITTFL":"Y","SITEID":"701","AGE":81,"SEX":"F","RACE":"WHITE","ARMCD":"Xan_Hi","TRTSDT":"2012-10-28","TRTEDT":"2013-04-28"},{"STUDYID":"CDISCPILOT01","USUBJID":"01-701-1133","DOMAIN":"ADAE","AESEQ":3,"AETERM":"APPLICATION SITE ERYTHEMA","AELLT":"APPLICATION SITE REDNESS","AELLTCD":null,"AEDECOD":"APPLICATION SITE ERYTHEMA","AEPTCD":null,"AEHLT":"HLT_0617","AEHLTCD":null,"AEHLGT":"HLGT_0152","AEHLGTCD":null,"AEBODSYS":"GENERAL DISORDERS AND ADMINISTRATION SITE CONDITIONS","AEBDSYCD":null,"AESOC":"GENERAL DISORDERS AND ADMINISTRATION SITE CONDITIONS","AESOCCD":null,"ASTDT":"2012-12-27","ASTDY":61,"AENDT":null,"AENDY":null,"AESEV":"MODERATE","AESEVN":2,"AESER":"N","AESERF":"N","AEACN":"","AEACNN":null,"AEREL":"PROBABLE","AEOUT":"NOT RECOVERED/NOT RESOLVED","AESCONG":"N","AESDISAB":"N","AESDTH":"N","AESDTHFL":"N","AESHOSP":"N","AESLIFE":"N","AESOD":"N","TRTEMFL":"Y","DERM_FL":"N","TRT01A":"Xanomeline High Dose","TRT01AN":3,"SAFFL":"Y","ITTFL":"Y","SITEID":"701","AGE":81,"SEX":"F","RACE":"WHITE","ARMCD":"Xan_Hi","TRTSDT":"2012-10-28","TRTEDT":"2013-04-28"},{"STUDYID":"CDISCPILOT01","USUBJID":"01-701-1133","DOMAIN":"ADAE","AESEQ":4,"AETERM":"APPLICATION SITE PRURITUS","AELLT":"APPLICATION SITE ITCHING","AELLTCD":null,"AEDECOD":"APPLICATION SITE PRURITUS","AEPTCD":null,"AEHLT":"HLT_0317","AEHLTCD":null,"AEHLGT":"HLGT_0338","AEHLGTCD":null,"AEBODSYS":"GENERAL DISORDERS AND ADMINISTRATION SITE CONDITIONS","AEBDSYCD":null,"AESOC":"GENERAL DISORDERS AND ADMINISTRATION SITE CONDITIONS","AESOCCD":null,"ASTDT":"2012-12-27","ASTDY":61,"AENDT":null,"AENDY":null,"AESEV":"MODERATE","AESEVN":2,"AESER":"N","AESERF":"N","AEACN":"","AEACNN":null,"AEREL":"PROBABLE","AEOUT":"NOT RECOVERED/NOT RESOLVED","AESCONG":"N","AESDISAB":"N","AESDTH":"N","AESDTHFL":"N","AESHOSP":"N","AESLIFE":"N","AESOD":"N","TRTEMFL":"Y","DERM_FL":"N","TRT01A":"Xanomeline High Dose","TRT01AN":3,"SAFFL":"Y","ITTFL":"Y","SITEID":"701","AGE":81,"SEX":"F","RACE":"WHITE","ARMCD":"Xan_Hi","TRTSDT":"2012-10-28","TRTEDT":"2013-04-28"},{"STUDYID":"CDISCPILOT01","USUBJID":"01-701-1146","DOMAIN":"ADAE","AESEQ":1,"AETERM":"RASH","AELLT":"RASH","AELLTCD":null,"AEDECOD":"RASH","AEPTCD":null,"AEHLT":"HLT_0762","AEHLTCD":null,"AEHLGT":"HLGT_0198","AEHLGTCD":null,"AEBODSYS":"SKIN AND SUBCUTANEOUS TISSUE DISORDERS","AEBDSYCD":null,"AESOC":"SKIN AND SUBCUTANEOUS TISSUE DISORDERS","AESOCCD":null,"ASTDT":"2013-05-16","ASTDY":-4,"AENDT":"2013-06-02","AENDY":14,"AESEV":"MILD","AESEVN":1,"AESER":"N","AESERF":"N","AEACN":"","AEACNN":null,"AEREL":"NONE","AEOUT":"NOT RECOVERED/NOT RESOLVED","AESCONG":"N","AESDISAB":"N","AESDTH":"N","AESDTHFL":"N","AESHOSP":"N","AESLIFE":"N","AESOD":"N","TRTEMFL":"N","DERM_FL":"Y","TRT01A":"Xanomeline High Dose","TRT01AN":3,"SAFFL":"Y","ITTFL":"Y","SITEID":"701","AGE":75,"SEX":"F","RACE":"WHITE","ARMCD":"Xan_Hi","TRTSDT":"2013-05-20","TRTEDT":"2013-06-26"},{"STUDYID":"CDISCPILOT01","USUBJID":"01-701-1146","DOMAIN":"ADAE","AESEQ":2,"AETERM":"RASH","AELLT":"RASH","AELLTCD":null,"AEDECOD":"RASH","AEPTCD":null,"AEHLT":"HLT_0762","AEHLTCD":null,"AEHLGT":"HLGT_0198","AEHLGTCD":null,"AEBODSYS":"SKIN AND SUBCUTANEOUS TISSUE DISORDERS","AEBDSYCD":null,"AESOC":"SKIN AND SUBCUTANEOUS TISSUE DISORDERS","AESOCCD":null,"ASTDT":"2013-05-16","ASTDY":-4,"AENDT":"2013-06-02","AENDY":14,"AESEV":"MILD","AESEVN":1,"AESER":"N","AESERF":"N","AEACN":"","AEACNN":null,"AEREL":"NONE","AEOUT":"RECOVERED/RESOLVED","AESCONG":"N","AESDISAB":"N","AESDTH":"N","AESDTHFL":"N","AESHOSP":"N","AESLIFE":"N","AESOD":"N","TRTEMFL":"N","DERM_FL":"Y","TRT01A":"Xanomeline High Dose","TRT01AN":3,"SAFFL":"Y","ITTFL":"Y","SITEID":"701","AGE":75,"SEX":"F","RACE":"WHITE","ARMCD":"Xan_Hi","TRTSDT":"2013-05-20","TRTEDT":"2013-06-26"},{"STUDYID":"CDISCPILOT01","USUBJID":"01-701-1146","DOMAIN":"ADAE","AESEQ":3,"AETERM":"APPLICATION SITE IRRITATION","AELLT":"APPLICATION SITE IRRITATION","AELLTCD":null,"AEDECOD":"APPLICATION SITE IRRITATION","AEPTCD":null,"AEHLT":"HLT_0061","AEHLTCD":null,"AEHLGT":"HLGT_0346","AEHLGTCD":null,"AEBODSYS":"GENERAL DISORDERS AND ADMINISTRATION SITE CONDITIONS","AEBDSYCD":null,"AESOC":"GENERAL DISORDERS AND ADMINISTRATION SITE CONDITIONS","AESOCCD":null,"ASTDT":"2013-06-01","ASTDY":13,"AENDT":"2013-06-02","AENDY":14,"AESEV":"MILD","AESEVN":1,"AESER":"N","AESERF":"N","AEACN":"","AEACNN":null,"AEREL":"PROBABLE","AEOUT":"RECOVERED/RESOLVED","AESCONG":"N","AESDISAB":"N","AESDTH":"N","AESDTHFL":"N","AESHOSP":"N","AESLIFE":"N","AESOD":"N","TRTEMFL":"Y","DERM_FL":"N","TRT01A":"Xanomeline High Dose","TRT01AN":3,"SAFFL":"Y","ITTFL":"Y","SITEID":"701","AGE":75,"SEX":"F","RACE":"WHITE","ARMCD":"Xan_Hi","TRTSDT":"2013-05-20","TRTEDT":"2013-06-26"},{"STUDYID":"CDISCPILOT01","USUBJID":"01-701-1146","DOMAIN":"ADAE","AESEQ":4,"AETERM":"FATIGUE","AELLT":"FATIGUE","AELLTCD":null,"AEDECOD":"FATIGUE","AEPTCD":null,"AEHLT":"HLT_0043","AEHLTCD":null,"AEHLGT":"HLGT_0181","AEHLGTCD":null,"AEBODSYS":"GENERAL DISORDERS AND ADMINISTRATION SITE CONDITIONS","AEBDSYCD":null,"AESOC":"GENERAL DISORDERS AND ADMINISTRATION SITE CONDITIONS","AESOCCD":null,"ASTDT":"2013-06-03","ASTDY":15,"AENDT":null,"AENDY":null,"AESEV":"MILD","AESEVN":1,"AESER":"N","AESERF":"N","AEACN":"","AEACNN":null,"AEREL":"POSSIBLE","AEOUT":"NOT RECOVERED/NOT RESOLVED","AESCONG":"N","AESDISAB":"N","AESDTH":"N","AESDTHFL":"N","AESHOSP":"N","AESLIFE":"N","AESOD":"N","TRTEMFL":"Y","DERM_FL":"N","TRT01A":"Xanomeline High Dose","TRT01AN":3,"SAFFL":"Y","ITTFL":"Y","SITEID":"701","AGE":75,"SEX":"F","RACE":"WHITE","ARMCD":"Xan_Hi","TRTSDT":"2013-05-20","TRTEDT":"2013-06-26"},{"STUDYID":"CDISCPILOT01","USUBJID":"01-701-1146","DOMAIN":"ADAE","AESEQ":5,"AETERM":"APPLICATION SITE ERYTHEMA","AELLT":"APPLICATION SITE ERYTHEMA","AELLTCD":null,"AEDECOD":"APPLICATION SITE ERYTHEMA","AEPTCD":null,"AEHLT":"HLT_0617","AEHLTCD":null,"AEHLGT":"HLGT_0152","AEHLGTCD":null,"AEBODSYS":"GENERAL DISORDERS AND ADMINISTRATION SITE CONDITIONS","AEBDSYCD":null,"AESOC":"GENERAL DISORDERS AND ADMINISTRATION SITE CONDITIONS","AESOCCD":null,"ASTDT":"2013-06-10","ASTDY":22,"AENDT":null,"AENDY":null,"AESEV":"MILD","AESEVN":1,"AESER":"N","AESERF":"N","AEACN":"","AEACNN":null,"AEREL":"PROBABLE","AEOUT":"NOT RECOVERED/NOT RESOLVED","AESCONG":"N","AESDISAB":"N","AESDTH":"N","AESDTHFL":"N","AESHOSP":"N","AESLIFE":"N","AESOD":"N","TRTEMFL":"Y","DERM_FL":"N","TRT01A":"Xanomeline High Dose","TRT01AN":3,"SAFFL":"Y","ITTFL":"Y","SITEID":"701","AGE":75,"SEX":"F","RACE":"WHITE","ARMCD":"Xan_Hi","TRTSDT":"2013-05-20","TRTEDT":"2013-06-26"},{"STUDYID":"CDISCPILOT01","USUBJID":"01-701-1146","DOMAIN":"ADAE","AESEQ":6,"AETERM":"APPLICATION SITE PRURITUS","AELLT":"APPLICATION SITE ITCHING","AELLTCD":null,"AEDECOD":"APPLICATION SITE PRURITUS","AEPTCD":null,"AEHLT":"HLT_0317","AEHLTCD":null,"AEHLGT":"HLGT_0338","AEHLGTCD":null,"AEBODSYS":"GENERAL DISORDERS AND ADMINISTRATION SITE CONDITIONS","AEBDSYCD":null,"AESOC":"GENERAL DISORDERS AND ADMINISTRATION SITE CONDITIONS","AESOCCD":null,"ASTDT":"2013-06-10","ASTDY":22,"AENDT":null,"AENDY":null,"AESEV":"MILD","AESEVN":1,"AESER":"N","AESERF":"N","AEACN":"","AEACNN":null,"AEREL":"PROBABLE","AEOUT":"NOT RECOVERED/NOT RESOLVED","AESCONG":"N","AESDISAB":"N","AESDTH":"N","AESDTHFL":"N","AESHOSP":"N","AESLIFE":"N","AESOD":"N","TRTEMFL":"Y","DERM_FL":"N","TRT01A":"Xanomeline High Dose","TRT01AN":3,"SAFFL":"Y","ITTFL":"Y","SITEID":"701","AGE":75,"SEX":"F","RACE":"WHITE","ARMCD":"Xan_Hi","TRTSDT":"2013-05-20","TRTEDT":"2013-06-26"},{"STUDYID":"CDISCPILOT01","USUBJID":"01-701-1146","DOMAIN":"ADAE","AESEQ":7,"AETERM":"APPLICATION SITE ERYTHEMA","AELLT":"APPLICATION SITE ERYTHEMA","AELLTCD":null,"AEDECOD":"APPLICATION SITE ERYTHEMA","AEPTCD":null,"AEHLT":"HLT_0617","AEHLTCD":null,"AEHLGT":"HLGT_0152","AEHLGTCD":null,"AEBODSYS":"GENERAL DISORDERS AND ADMINISTRATION SITE CONDITIONS","AEBDSYCD":null,"AESOC":"GENERAL DISORDERS AND ADMINISTRATION SITE CONDITIONS","AESOCCD":null,"ASTDT":"2013-06-10","ASTDY":22,"AENDT":null,"AENDY":null,"AESEV":"MODERATE","AESEVN":2,"AESER":"N","AESERF":"N","AEACN":"","AEACNN":null,"AEREL":"PROBABLE","AEOUT":"NOT RECOVERED/NOT RESOLVED","AESCONG":"N","AESDISAB":"N","AESDTH":"N","AESDTHFL":"N","AESHOSP":"N","AESLIFE":"N","AESOD":"N","TRTEMFL":"Y","DERM_FL":"N","TRT01A":"Xanomeline High Dose","TRT01AN":3,"SAFFL":"Y","ITTFL":"Y","SITEID":"701","AGE":75,"SEX":"F","RACE":"WHITE","ARMCD":"Xan_Hi","TRTSDT":"2013-05-20","TRTEDT":"2013-06-26"},{"STUDYID":"CDISCPILOT01","USUBJID":"01-701-1146","DOMAIN":"ADAE","AESEQ":8,"AETERM":"APPLICATION SITE PRURITUS","AELLT":"APPLICATION SITE ITCHING","AELLTCD":null,"AEDECOD":"APPLICATION SITE PRURITUS","AEPTCD":null,"AEHLT":"HLT_0317","AEHLTCD":null,"AEHLGT":"HLGT_0338","AEHLGTCD":null,"AEBODSYS":"GENERAL DISORDERS AND ADMINISTRATION SITE CONDITIONS","AEBDSYCD":null,"AESOC":"GENERAL DISORDERS AND ADMINISTRATION SITE CONDITIONS","AESOCCD":null,"ASTDT":"2013-06-10","ASTDY":22,"AENDT":null,"AENDY":null,"AESEV":"MODERATE","AESEVN":2,"AESER":"N","AESERF":"N","AEACN":"","AEACNN":null,"AEREL":"PROBABLE","AEOUT":"NOT RECOVERED/NOT RESOLVED","AESCONG":"N","AESDISAB":"N","AESDTH":"N","AESDTHFL":"N","AESHOSP":"N","AESLIFE":"N","AESOD":"N","TRTEMFL":"Y","DERM_FL":"N","TRT01A":"Xanomeline High Dose","TRT01AN":3,"SAFFL":"Y","ITTFL":"Y","SITEID":"701","AGE":75,"SEX":"F","RACE":"WHITE","ARMCD":"Xan_Hi","TRTSDT":"2013-05-20","TRTEDT":"2013-06-26"},{"STUDYID":"CDISCPILOT01","USUBJID":"01-701-1146","DOMAIN":"ADAE","AESEQ":9,"AETERM":"APPLICATION SITE PAIN","AELLT":"APPLICATION SITE PAIN","AELLTCD":null,"AEDECOD":"APPLICATION SITE PAIN","AEPTCD":null,"AEHLT":"HLT_0342","AEHLTCD":null,"AEHLGT":"HLGT_0085","AEHLGTCD":null,"AEBODSYS":"GENERAL DISORDERS AND ADMINISTRATION SITE CONDITIONS","AEBDSYCD":null,"AESOC":"GENERAL DISORDERS AND ADMINISTRATION SITE CONDITIONS","AESOCCD":null,"ASTDT":"2013-06-22","ASTDY":34,"AENDT":null,"AENDY":null,"AESEV":"MODERATE","AESEVN":2,"AESER":"N","AESERF":"N","AEACN":"","AEACNN":null,"AEREL":"PROBABLE","AEOUT":"NOT RECOVERED/NOT RESOLVED","AESCONG":"N","AESDISAB":"N","AESDTH":"N","AESDTHFL":"N","AESHOSP":"N","AESLIFE":"N","AESOD":"N","TRTEMFL":"Y","DERM_FL":"N","TRT01A":"Xanomeline High Dose","TRT01AN":3,"SAFFL":"Y","ITTFL":"Y","SITEID":"701","AGE":75,"SEX":"F","RACE":"WHITE","ARMCD":"Xan_Hi","TRTSDT":"2013-05-20","TRTEDT":"2013-06-26"},{"STUDYID":"CDISCPILOT01","USUBJID":"01-701-1146","DOMAIN":"ADAE","AESEQ":10,"AETERM":"APPLICATION SITE VESICLES","AELLT":"APPLICATION SITE VESICLES","AELLTCD":null,"AEDECOD":"APPLICATION SITE VESICLES","AEPTCD":null,"AEHLT":"HLT_0180","AEHLTCD":null,"AEHLGT":"HLGT_0576","AEHLGTCD":null,"AEBODSYS":"GENERAL DISORDERS AND ADMINISTRATION SITE CONDITIONS","AEBDSYCD":null,"AESOC":"GENERAL DISORDERS AND ADMINISTRATION SITE CONDITIONS","AESOCCD":null,"ASTDT":"2013-06-26","ASTDY":38,"AENDT":null,"AENDY":null,"AESEV":"MODERATE","AESEVN":2,"AESER":"N","AESERF":"N","AEACN":"","AEACNN":null,"AEREL":"PROBABLE","AEOUT":"NOT RECOVERED/NOT RESOLVED","AESCONG":"N","AESDISAB":"N","AESDTH":"N","AESDTHFL":"N","AESHOSP":"N","AESLIFE":"N","AESOD":"N","TRTEMFL":"Y","DERM_FL":"N","TRT01A":"Xanomeline High Dose","TRT01AN":3,"SAFFL":"Y","ITTFL":"Y","SITEID":"701","AGE":75,"SEX":"F","RACE":"WHITE","ARMCD":"Xan_Hi","TRTSDT":"2013-05-20","TRTEDT":"2013-06-26"},{"STUDYID":"CDISCPILOT01","USUBJID":"01-701-1146","DOMAIN":"ADAE","AESEQ":11,"AETERM":"APPLICATION SITE IRRITATION","AELLT":"APPLICATION SITE BURNING","AELLTCD":null,"AEDECOD":"APPLICATION SITE IRRITATION","AEPTCD":null,"AEHLT":"HLT_0061","AEHLTCD":null,"AEHLGT":"HLGT_0346","AEHLGTCD":null,"AEBODSYS":"GENERAL DISORDERS AND ADMINISTRATION SITE CONDITIONS","AEBDSYCD":null,"AESOC":"GENERAL DISORDERS AND ADMINISTRATION SITE CONDITIONS","AESOCCD":null,"ASTDT":"2013-06-26","ASTDY":38,"AENDT":null,"AENDY":null,"AESEV":"MODERATE","AESEVN":2,"AESER":"N","AESERF":"N","AEACN":"","AEACNN":null,"AEREL":"PROBABLE","AEOUT":"NOT RECOVERED/NOT RESOLVED","AESCONG":"N","AESDISAB":"N","AESDTH":"N","AESDTHFL":"N","AESHOSP":"N","AESLIFE":"N","AESOD":"N","TRTEMFL":"Y","DERM_FL":"N","TRT01A":"Xanomeline High Dose","TRT01AN":3,"SAFFL":"Y","ITTFL":"Y","SITEID":"701","AGE":75,"SEX":"F","RACE":"WHITE","ARMCD":"Xan_Hi","TRTSDT":"2013-05-20","TRTEDT":"2013-06-26"},{"STUDYID":"CDISCPILOT01","USUBJID":"01-701-1148","DOMAIN":"ADAE","AESEQ":1,"AETERM":"APPLICATION SITE ERYTHEMA","AELLT":"APPLICATION SITE REDNESS","AELLTCD":null,"AEDECOD":"APPLICATION SITE ERYTHEMA","AEPTCD":null,"AEHLT":"HLT_0617","AEHLTCD":null,"AEHLGT":"HLGT_0152","AEHLGTCD":null,"AEBODSYS":"GENERAL DISORDERS AND ADMINISTRATION SITE CONDITIONS","AEBDSYCD":null,"AESOC":"GENERAL DISORDERS AND ADMINISTRATION SITE CONDITIONS","AESOCCD":null,"ASTDT":"2013-08-25","ASTDY":3,"AENDT":null,"AENDY":null,"AESEV":"MILD","AESEVN":1,"AESER":"N","AESERF":"N","AEACN":"","AEACNN":null,"AEREL":"PROBABLE","AEOUT":"NOT RECOVERED/NOT RESOLVED","AESCONG":"N","AESDISAB":"N","AESDTH":"N","AESDTHFL":"N","AESHOSP":"N","AESLIFE":"N","AESOD":"N","TRTEMFL":"Y","DERM_FL":"N","TRT01A":"Xanomeline High Dose","TRT01AN":3,"SAFFL":"Y","ITTFL":"Y","SITEID":"701","AGE":57,"SEX":"M","RACE":"WHITE","ARMCD":"Xan_Hi","TRTSDT":"2013-08-23","TRTEDT":"2014-02-20"},{"STUDYID":"CDISCPILOT01","USUBJID":"01-701-1148","DOMAIN":"ADAE","AESEQ":2,"AETERM":"APPLICATION SITE PRURITUS","AELLT":"APPLICATION SITE ITCHING","AELLTCD":null,"AEDECOD":"APPLICATION SITE PRURITUS","AEPTCD":null,"AEHLT":"HLT_0317","AEHLTCD":null,"AEHLGT":"HLGT_0338","AEHLGTCD":null,"AEBODSYS":"GENERAL DISORDERS AND ADMINISTRATION SITE CONDITIONS","AEBDSYCD":null,"AESOC":"GENERAL DISORDERS AND ADMINISTRATION SITE CONDITIONS","AESOCCD":null,"ASTDT":"2013-08-25","ASTDY":3,"AENDT":null,"AENDY":null,"AESEV":"MILD","AESEVN":1,"AESER":"N","AESERF":"N","AEACN":"","AEACNN":null,"AEREL":"PROBABLE","AEOUT":"NOT RECOVERED/NOT RESOLVED","AESCONG":"N","AESDISAB":"N","AESDTH":"N","AESDTHFL":"N","AESHOSP":"N","AESLIFE":"N","AESOD":"N","TRTEMFL":"Y","DERM_FL":"N","TRT01A":"Xanomeline High Dose","TRT01AN":3,"SAFFL":"Y","ITTFL":"Y","SITEID":"701","AGE":57,"SEX":"M","RACE":"WHITE","ARMCD":"Xan_Hi","TRTSDT":"2013-08-23","TRTEDT":"2014-02-20"},{"STUDYID":"CDISCPILOT01","USUBJID":"01-701-1148","DOMAIN":"ADAE","AESEQ":3,"AETERM":"LOWER RESPIRATORY TRACT INFECTION","AELLT":"CHEST COLD","AELLTCD":null,"AEDECOD":"LOWER RESPIRATORY TRACT INFECTION","AEPTCD":null,"AEHLT":"HLT_0052","AEHLTCD":null,"AEHLGT":"HLGT_0217","AEHLGTCD":null,"AEBODSYS":"INFECTIONS AND INFESTATIONS","AEBDSYCD":null,"AESOC":"INFECTIONS AND INFESTATIONS","AESOCCD":null,"ASTDT":"2013-10-12","ASTDY":51,"AENDT":"2013-11-10","AENDY":80,"AESEV":"MODERATE","AESEVN":2,"AESER":"N","AESERF":"N","AEACN":"","AEACNN":null,"AEREL":"NONE","AEOUT":"NOT RECOVERED/NOT RESOLVED","AESCONG":"N","AESDISAB":"N","AESDTH":"N","AESDTHFL":"N","AESHOSP":"N","AESLIFE":"N","AESOD":"N","TRTEMFL":"Y","DERM_FL":"N","TRT01A":"Xanomeline High Dose","TRT01AN":3,"SAFFL":"Y","ITTFL":"Y","SITEID":"701","AGE":57,"SEX":"M","RACE":"WHITE","ARMCD":"Xan_Hi","TRTSDT":"2013-08-23","TRTEDT":"2014-02-20"},{"STUDYID":"CDISCPILOT01","USUBJID":"01-701-1148","DOMAIN":"ADAE","AESEQ":4,"AETERM":"LOWER RESPIRATORY TRACT INFECTION","AELLT":"CHEST COLD","AELLTCD":null,"AEDECOD":"LOWER RESPIRATORY TRACT INFECTION","AEPTCD":null,"AEHLT":"HLT_0052","AEHLTCD":null,"AEHLGT":"HLGT_0217","AEHLGTCD":null,"AEBODSYS":"INFECTIONS AND INFESTATIONS","AEBDSYCD":null,"AESOC":"INFECTIONS AND INFESTATIONS","AESOCCD":null,"ASTDT":"2013-10-12","ASTDY":51,"AENDT":"2013-11-10","AENDY":80,"AESEV":"MODERATE","AESEVN":2,"AESER":"N","AESERF":"N","AEACN":"","AEACNN":null,"AEREL":"NONE","AEOUT":"RECOVERED/RESOLVED","AESCONG":"N","AESDISAB":"N","AESDTH":"N","AESDTHFL":"N","AESHOSP":"N","AESLIFE":"N","AESOD":"N","TRTEMFL":"Y","DERM_FL":"N","TRT01A":"Xanomeline High Dose","TRT01AN":3,"SAFFL":"Y","ITTFL":"Y","SITEID":"701","AGE":57,"SEX":"M","RACE":"WHITE","ARMCD":"Xan_Hi","TRTSDT":"2013-08-23","TRTEDT":"2014-02-20"},{"STUDYID":"CDISCPILOT01","USUBJID":"01-701-1148","DOMAIN":"ADAE","AESEQ":5,"AETERM":"FLANK PAIN","AELLT":"FLANK PAIN","AELLTCD":null,"AEDECOD":"FLANK PAIN","AEPTCD":null,"AEHLT":"HLT_0484","AEHLTCD":null,"AEHLGT":"HLGT_0543","AEHLGTCD":null,"AEBODSYS":"MUSCULOSKELETAL AND CONNECTIVE TISSUE DISORDERS","AEBDSYCD":null,"AESOC":"MUSCULOSKELETAL AND CONNECTIVE TISSUE DISORDERS","AESOCCD":null,"ASTDT":"2013-12-15","ASTDY":115,"AENDT":"2013-12-17","AENDY":117,"AESEV":"MODERATE","AESEVN":2,"AESER":"N","AESERF":"N","AEACN":"","AEACNN":null,"AEREL":"NONE","AEOUT":"RECOVERED/RESOLVED","AESCONG":"N","AESDISAB":"N","AESDTH":"N","AESDTHFL":"N","AESHOSP":"N","AESLIFE":"N","AESOD":"N","TRTEMFL":"Y","DERM_FL":"N","TRT01A":"Xanomeline High Dose","TRT01AN":3,"SAFFL":"Y","ITTFL":"Y","SITEID":"701","AGE":57,"SEX":"M","RACE":"WHITE","ARMCD":"Xan_Hi","TRTSDT":"2013-08-23","TRTEDT":"2014-02-20"},{"STUDYID":"CDISCPILOT01","USUBJID":"01-701-1148","DOMAIN":"ADAE","AESEQ":6,"AETERM":"CALCULUS URETHRAL","AELLT":"URETHRAL CALCULUS","AELLTCD":null,"AEDECOD":"CALCULUS URETHRAL","AEPTCD":null,"AEHLT":"HLT_0550","AEHLTCD":null,"AEHLGT":"HLGT_0414","AEHLGTCD":null,"AEBODSYS":"RENAL AND URINARY DISORDERS","AEBDSYCD":null,"AESOC":"RENAL AND URINARY DISORDERS","AESOCCD":null,"ASTDT":"2013-12-17","ASTDY":117,"AENDT":"2013-12-17","AENDY":117,"AESEV":"MODERATE","AESEVN":2,"AESER":"N","AESERF":"N","AEACN":"","AEACNN":null,"AEREL":"NONE","AEOUT":"RECOVERED/RESOLVED","AESCONG":"N","AESDISAB":"N","AESDTH":"N","AESDTHFL":"N","AESHOSP":"N","AESLIFE":"N","AESOD":"N","TRTEMFL":"Y","DERM_FL":"N","TRT01A":"Xanomeline High Dose","TRT01AN":3,"SAFFL":"Y","ITTFL":"Y","SITEID":"701","AGE":57,"SEX":"M","RACE":"WHITE","ARMCD":"Xan_Hi","TRTSDT":"2013-08-23","TRTEDT":"2014-02-20"},{"STUDYID":"CDISCPILOT01","USUBJID":"01-701-1148","DOMAIN":"ADAE","AESEQ":7,"AETERM":"EPISTAXIS","AELLT":"NOSE BLEED","AELLTCD":null,"AEDECOD":"EPISTAXIS","AEPTCD":null,"AEHLT":"HLT_0386","AEHLTCD":null,"AEHLGT":"HLGT_0577","AEHLGTCD":null,"AEBODSYS":"RESPIRATORY, THORACIC AND MEDIASTINAL DISORDERS","AEBDSYCD":null,"AESOC":"RESPIRATORY, THORACIC AND MEDIASTINAL DISORDERS","AESOCCD":null,"ASTDT":"2014-01-03","ASTDY":134,"AENDT":"2014-01-03","AENDY":134,"AESEV":"MILD","AESEVN":1,"AESER":"N","AESERF":"N","AEACN":"","AEACNN":null,"AEREL":"NONE","AEOUT":"RECOVERED/RESOLVED","AESCONG":"N","AESDISAB":"N","AESDTH":"N","AESDTHFL":"N","AESHOSP":"N","AESLIFE":"N","AESOD":"N","TRTEMFL":"Y","DERM_FL":"N","TRT01A":"Xanomeline High Dose","TRT01AN":3,"SAFFL":"Y","ITTFL":"Y","SITEID":"701","AGE":57,"SEX":"M","RACE":"WHITE","ARMCD":"Xan_Hi","TRTSDT":"2013-08-23","TRTEDT":"2014-02-20"},{"STUDYID":"CDISCPILOT01","USUBJID":"01-701-1148","DOMAIN":"ADAE","AESEQ":8,"AETERM":"DYSPEPSIA","AELLT":"INDIGESTION","AELLTCD":null,"AEDECOD":"DYSPEPSIA","AEPTCD":null,"AEHLT":"HLT_0244","AEHLTCD":null,"AEHLGT":"HLGT_0716","AEHLGTCD":null,"AEBODSYS":"GASTROINTESTINAL DISORDERS","AEBDSYCD":null,"AESOC":"GASTROINTESTINAL DISORDERS","AESOCCD":null,"ASTDT":null,"ASTDY":null,"AENDT":null,"AENDY":null,"AESEV":"MODERATE","AESEVN":2,"AESER":"N","AESERF":"N","AEACN":"","AEACNN":null,"AEREL":"NONE","AEOUT":"NOT RECOVERED/NOT RESOLVED","AESCONG":"N","AESDISAB":"N","AESDTH":"N","AESDTHFL":"N","AESHOSP":"N","AESLIFE":"N","AESOD":"N","TRTEMFL":"N","DERM_FL":"N","TRT01A":"Xanomeline High Dose","TRT01AN":3,"SAFFL":"Y","ITTFL":"Y","SITEID":"701","AGE":57,"SEX":"M","RACE":"WHITE","ARMCD":"Xan_Hi","TRTSDT":"2013-08-23","TRTEDT":"2014-02-20"},{"STUDYID":"CDISCPILOT01","USUBJID":"01-701-1148","DOMAIN":"ADAE","AESEQ":9,"AETERM":"DEPRESSED MOOD","AELLT":"DEPRESSED MOOD","AELLTCD":null,"AEDECOD":"DEPRESSED MOOD","AEPTCD":null,"AEHLT":"HLT_0784","AEHLTCD":null,"AEHLGT":"HLGT_0122","AEHLGTCD":null,"AEBODSYS":"PSYCHIATRIC DISORDERS","AEBDSYCD":null,"AESOC":"PSYCHIATRIC DISORDERS","AESOCCD":null,"ASTDT":"2013-07-29","ASTDY":-25,"AENDT":null,"AENDY":null,"AESEV":"MODERATE","AESEVN":2,"AESER":"N","AESERF":"N","AEACN":"","AEACNN":null,"AEREL":"NONE","AEOUT":"NOT RECOVERED/NOT RESOLVED","AESCONG":"N","AESDISAB":"N","AESDTH":"N","AESDTHFL":"N","AESHOSP":"N","AESLIFE":"N","AESOD":"N","TRTEMFL":"N","DERM_FL":"N","TRT01A":"Xanomeline High Dose","TRT01AN":3,"SAFFL":"Y","ITTFL":"Y","SITEID":"701","AGE":57,"SEX":"M","RACE":"WHITE","ARMCD":"Xan_Hi","TRTSDT":"2013-08-23","TRTEDT":"2014-02-20"},{"STUDYID":"CDISCPILOT01","USUBJID":"01-701-1148","DOMAIN":"ADAE","AESEQ":10,"AETERM":"ACTINIC KERATOSIS","AELLT":"ACTINIC KERATOSIS","AELLTCD":null,"AEDECOD":"ACTINIC KERATOSIS","AEPTCD":null,"AEHLT":"HLT_0609","AEHLTCD":null,"AEHLGT":"HLGT_0490","AEHLGTCD":null,"AEBODSYS":"SKIN AND SUBCUTANEOUS TISSUE DISORDERS","AEBDSYCD":null,"AESOC":"SKIN AND SUBCUTANEOUS TISSUE DISORDERS","AESOCCD":null,"ASTDT":"2014-02-12","ASTDY":174,"AENDT":null,"AENDY":null,"AESEV":"MILD","AESEVN":1,"AESER":"N","AESERF":"N","AEACN":"","AEACNN":null,"AEREL":"NONE","AEOUT":"NOT RECOVERED/NOT RESOLVED","AESCONG":"N","AESDISAB":"N","AESDTH":"N","AESDTHFL":"N","AESHOSP":"N","AESLIFE":"N","AESOD":"N","TRTEMFL":"Y","DERM_FL":"Y","TRT01A":"Xanomeline High Dose","TRT01AN":3,"SAFFL":"Y","ITTFL":"Y","SITEID":"701","AGE":57,"SEX":"M","RACE":"WHITE","ARMCD":"Xan_Hi","TRTSDT":"2013-08-23","TRTEDT":"2014-02-20"},{"STUDYID":"CDISCPILOT01","USUBJID":"01-701-1153","DOMAIN":"ADAE","AESEQ":1,"AETERM":"INCREASED APPETITE","AELLT":"INCREASED APPETITE","AELLTCD":null,"AEDECOD":"INCREASED APPETITE","AEPTCD":null,"AEHLT":"HLT_0566","AEHLTCD":null,"AEHLGT":"HLGT_0769","AEHLGTCD":null,"AEBODSYS":"METABOLISM AND NUTRITION DISORDERS","AEBDSYCD":null,"AESOC":"METABOLISM AND NUTRITION DISORDERS","AESOCCD":null,"ASTDT":"2013-10-13","ASTDY":21,"AENDT":"2013-11-06","AENDY":45,"AESEV":"MILD","AESEVN":1,"AESER":"N","AESERF":"N","AEACN":"","AEACNN":null,"AEREL":"POSSIBLE","AEOUT":"NOT RECOVERED/NOT RESOLVED","AESCONG":"N","AESDISAB":"N","AESDTH":"N","AESDTHFL":"N","AESHOSP":"N","AESLIFE":"N","AESOD":"N","TRTEMFL":"Y","DERM_FL":"N","TRT01A":"Placebo","TRT01AN":1,"SAFFL":"Y","ITTFL":"Y","SITEID":"701","AGE":79,"SEX":"F","RACE":"WHITE","ARMCD":"Pbo","TRTSDT":"2013-09-23","TRTEDT":"2014-03-16"},{"STUDYID":"CDISCPILOT01","USUBJID":"01-701-1153","DOMAIN":"ADAE","AESEQ":2,"AETERM":"INCREASED APPETITE","AELLT":"INCREASED APPETITE","AELLTCD":null,"AEDECOD":"INCREASED APPETITE","AEPTCD":null,"AEHLT":"HLT_0566","AEHLTCD":null,"AEHLGT":"HLGT_0769","AEHLGTCD":null,"AEBODSYS":"METABOLISM AND NUTRITION DISORDERS","AEBDSYCD":null,"AESOC":"METABOLISM AND NUTRITION DISORDERS","AESOCCD":null,"ASTDT":"2013-10-13","ASTDY":21,"AENDT":"2013-11-06","AENDY":45,"AESEV":"MILD","AESEVN":1,"AESER":"N","AESERF":"N","AEACN":"","AEACNN":null,"AEREL":"POSSIBLE","AEOUT":"RECOVERED/RESOLVED","AESCONG":"N","AESDISAB":"N","AESDTH":"N","AESDTHFL":"N","AESHOSP":"N","AESLIFE":"N","AESOD":"N","TRTEMFL":"Y","DERM_FL":"N","TRT01A":"Placebo","TRT01AN":1,"SAFFL":"Y","ITTFL":"Y","SITEID":"701","AGE":79,"SEX":"F","RACE":"WHITE","ARMCD":"Pbo","TRTSDT":"2013-09-23","TRTEDT":"2014-03-16"},{"STUDYID":"CDISCPILOT01","USUBJID":"01-701-1180","DOMAIN":"ADAE","AESEQ":1,"AETERM":"VOMITING","AELLT":"VOMITING","AELLTCD":null,"AEDECOD":"VOMITING","AEPTCD":null,"AEHLT":"HLT_0016","AEHLTCD":null,"AEHLGT":"HLGT_0350","AEHLGTCD":null,"AEBODSYS":"GASTROINTESTINAL DISORDERS","AEBDSYCD":null,"AESOC":"GASTROINTESTINAL DISORDERS","AESOCCD":null,"ASTDT":"2013-02-12","ASTDY":1,"AENDT":"2013-02-12","AENDY":1,"AESEV":"MILD","AESEVN":1,"AESER":"N","AESERF":"N","AEACN":"","AEACNN":null,"AEREL":"NONE","AEOUT":"NOT RECOVERED/NOT RESOLVED","AESCONG":"N","AESDISAB":"N","AESDTH":"N","AESDTHFL":"N","AESHOSP":"N","AESLIFE":"N","AESOD":"N","TRTEMFL":"Y","DERM_FL":"N","TRT01A":"Xanomeline High Dose","TRT01AN":3,"SAFFL":"Y","ITTFL":"Y","SITEID":"701","AGE":56,"SEX":"M","RACE":"WHITE","ARMCD":"Xan_Hi","TRTSDT":"2013-02-12","TRTEDT":"2013-03-18"},{"STUDYID":"CDISCPILOT01","USUBJID":"01-701-1180","DOMAIN":"ADAE","AESEQ":2,"AETERM":"VOMITING","AELLT":"VOMITING","AELLTCD":null,"AEDECOD":"VOMITING","AEPTCD":null,"AEHLT":"HLT_0016","AEHLTCD":null,"AEHLGT":"HLGT_0350","AEHLGTCD":null,"AEBODSYS":"GASTROINTESTINAL DISORDERS","AEBDSYCD":null,"AESOC":"GASTROINTESTINAL DISORDERS","AESOCCD":null,"ASTDT":"2013-02-12","ASTDY":1,"AENDT":"2013-02-12","AENDY":1,"AESEV":"MILD","AESEVN":1,"AESER":"N","AESERF":"N","AEACN":"","AEACNN":null,"AEREL":"NONE","AEOUT":"RECOVERED/RESOLVED","AESCONG":"N","AESDISAB":"N","AESDTH":"N","AESDTHFL":"N","AESHOSP":"N","AESLIFE":"N","AESOD":"N","TRTEMFL":"Y","DERM_FL":"N","TRT01A":"Xanomeline High Dose","TRT01AN":3,"SAFFL":"Y","ITTFL":"Y","SITEID":"701","AGE":56,"SEX":"M","RACE":"WHITE","ARMCD":"Xan_Hi","TRTSDT":"2013-02-12","TRTEDT":"2013-03-18"},{"STUDYID":"CDISCPILOT01","USUBJID":"01-701-1180","DOMAIN":"ADAE","AESEQ":3,"AETERM":"MICTURITION URGENCY","AELLT":"URINARY URGENCY","AELLTCD":null,"AEDECOD":"MICTURITION URGENCY","AEPTCD":null,"AEHLT":"HLT_0294","AEHLTCD":null,"AEHLGT":"HLGT_0483","AEHLGTCD":null,"AEBODSYS":"RENAL AND URINARY DISORDERS","AEBDSYCD":null,"AESOC":"RENAL AND URINARY DISORDERS","AESOCCD":null,"ASTDT":"2013-02-15","ASTDY":4,"AENDT":"2013-03-19","AENDY":36,"AESEV":"MILD","AESEVN":1,"AESER":"N","AESERF":"N","AEACN":"","AEACNN":null,"AEREL":"POSSIBLE","AEOUT":"NOT RECOVERED/NOT RESOLVED","AESCONG":"N","AESDISAB":"N","AESDTH":"N","AESDTHFL":"N","AESHOSP":"N","AESLIFE":"N","AESOD":"N","TRTEMFL":"Y","DERM_FL":"N","TRT01A":"Xanomeline High Dose","TRT01AN":3,"SAFFL":"Y","ITTFL":"Y","SITEID":"701","AGE":56,"SEX":"M","RACE":"WHITE","ARMCD":"Xan_Hi","TRTSDT":"2013-02-12","TRTEDT":"2013-03-18"},{"STUDYID":"CDISCPILOT01","USUBJID":"01-701-1180","DOMAIN":"ADAE","AESEQ":4,"AETERM":"HEADACHE","AELLT":"HEADACHE","AELLTCD":null,"AEDECOD":"HEADACHE","AEPTCD":null,"AEHLT":"HLT_0064","AEHLTCD":null,"AEHLGT":"HLGT_0344","AEHLGTCD":null,"AEBODSYS":"NERVOUS SYSTEM DISORDERS","AEBDSYCD":null,"AESOC":"NERVOUS SYSTEM DISORDERS","AESOCCD":null,"ASTDT":null,"ASTDY":null,"AENDT":null,"AENDY":null,"AESEV":"MODERATE","AESEVN":2,"AESER":"N","AESERF":"N","AEACN":"","AEACNN":null,"AEREL":"NONE","AEOUT":"NOT RECOVERED/NOT RESOLVED","AESCONG":"N","AESDISAB":"N","AESDTH":"N","AESDTHFL":"N","AESHOSP":"N","AESLIFE":"N","AESOD":"N","TRTEMFL":"N","DERM_FL":"N","TRT01A":"Xanomeline High Dose","TRT01AN":3,"SAFFL":"Y","ITTFL":"Y","SITEID":"701","AGE":56,"SEX":"M","RACE":"WHITE","ARMCD":"Xan_Hi","TRTSDT":"2013-02-12","TRTEDT":"2013-03-18"},{"STUDYID":"CDISCPILOT01","USUBJID":"01-701-1180","DOMAIN":"ADAE","AESEQ":5,"AETERM":"NASOPHARYNGITIS","AELLT":"COLD","AELLTCD":null,"AEDECOD":"NASOPHARYNGITIS","AEPTCD":null,"AEHLT":"HLT_0036","AEHLTCD":null,"AEHLGT":"HLGT_0709","AEHLGTCD":null,"AEBODSYS":"INFECTIONS AND INFESTATIONS","AEBDSYCD":null,"AESOC":"INFECTIONS AND INFESTATIONS","AESOCCD":null,"ASTDT":"2013-03-06","ASTDY":23,"AENDT":"2013-03-07","AENDY":24,"AESEV":"MILD","AESEVN":1,"AESER":"N","AESERF":"N","AEACN":"","AEACNN":null,"AEREL":"NONE","AEOUT":"RECOVERED/RESOLVED","AESCONG":"N","AESDISAB":"N","AESDTH":"N","AESDTHFL":"N","AESHOSP":"N","AESLIFE":"N","AESOD":"N","TRTEMFL":"Y","DERM_FL":"N","TRT01A":"Xanomeline High Dose","TRT01AN":3,"SAFFL":"Y","ITTFL":"Y","SITEID":"701","AGE":56,"SEX":"M","RACE":"WHITE","ARMCD":"Xan_Hi","TRTSDT":"2013-02-12","TRTEDT":"2013-03-18"},{"STUDYID":"CDISCPILOT01","USUBJID":"01-701-1180","DOMAIN":"ADAE","AESEQ":6,"AETERM":"MICTURITION URGENCY","AELLT":"URINARY URGENCY","AELLTCD":null,"AEDECOD":"MICTURITION URGENCY","AEPTCD":null,"AEHLT":"HLT_0294","AEHLTCD":null,"AEHLGT":"HLGT_0483","AEHLGTCD":null,"AEBODSYS":"RENAL AND URINARY DISORDERS","AEBDSYCD":null,"AESOC":"RENAL AND URINARY DISORDERS","AESOCCD":null,"ASTDT":"2013-02-15","ASTDY":4,"AENDT":"2013-03-19","AENDY":36,"AESEV":"MILD","AESEVN":1,"AESER":"N","AESERF":"N","AEACN":"","AEACNN":null,"AEREL":"POSSIBLE","AEOUT":"RECOVERED/RESOLVED","AESCONG":"N","AESDISAB":"N","AESDTH":"N","AESDTHFL":"N","AESHOSP":"N","AESLIFE":"N","AESOD":"N","TRTEMFL":"Y","DERM_FL":"N","TRT01A":"Xanomeline High Dose","TRT01AN":3,"SAFFL":"Y","ITTFL":"Y","SITEID":"701","AGE":56,"SEX":"M","RACE":"WHITE","ARMCD":"Xan_Hi","TRTSDT":"2013-02-12","TRTEDT":"2013-03-18"},{"STUDYID":"CDISCPILOT01","USUBJID":"01-701-1180","DOMAIN":"ADAE","AESEQ":7,"AETERM":"APPLICATION SITE VESICLES","AELLT":"APPLICATION SITE BLISTER","AELLTCD":null,"AEDECOD":"APPLICATION SITE VESICLES","AEPTCD":null,"AEHLT":"HLT_0180","AEHLTCD":null,"AEHLGT":"HLGT_0576","AEHLGTCD":null,"AEBODSYS":"GENERAL DISORDERS AND ADMINISTRATION SITE CONDITIONS","AEBDSYCD":null,"AESOC":"GENERAL DISORDERS AND ADMINISTRATION SITE CONDITIONS","AESOCCD":null,"ASTDT":"2013-03-19","ASTDY":36,"AENDT":null,"AENDY":null,"AESEV":"MODERATE","AESEVN":2,"AESER":"N","AESERF":"N","AEACN":"","AEACNN":null,"AEREL":"POSSIBLE","AEOUT":"NOT RECOVERED/NOT RESOLVED","AESCONG":"N","AESDISAB":"N","AESDTH":"N","AESDTHFL":"N","AESHOSP":"N","AESLIFE":"N","AESOD":"N","TRTEMFL":"Y","DERM_FL":"N","TRT01A":"Xanomeline High Dose","TRT01AN":3,"SAFFL":"Y","ITTFL":"Y","SITEID":"701","AGE":56,"SEX":"M","RACE":"WHITE","ARMCD":"Xan_Hi","TRTSDT":"2013-02-12","TRTEDT":"2013-03-18"},{"STUDYID":"CDISCPILOT01","USUBJID":"01-701-1180","DOMAIN":"ADAE","AESEQ":8,"AETERM":"APPLICATION SITE PRURITUS","AELLT":"APPLICATION SITE ITCHING","AELLTCD":null,"AEDECOD":"APPLICATION SITE PRURITUS","AEPTCD":null,"AEHLT":"HLT_0317","AEHLTCD":null,"AEHLGT":"HLGT_0338","AEHLGTCD":null,"AEBODSYS":"GENERAL DISORDERS AND ADMINISTRATION SITE CONDITIONS","AEBDSYCD":null,"AESOC":"GENERAL DISORDERS AND ADMINISTRATION SITE CONDITIONS","AESOCCD":null,"ASTDT":"2013-03-19","ASTDY":36,"AENDT":null,"AENDY":null,"AESEV":"MODERATE","AESEVN":2,"AESER":"N","AESERF":"N","AEACN":"","AEACNN":null,"AEREL":"POSSIBLE","AEOUT":"NOT RECOVERED/NOT RESOLVED","AESCONG":"N","AESDISAB":"N","AESDTH":"N","AESDTHFL":"N","AESHOSP":"N","AESLIFE":"N","AESOD":"N","TRTEMFL":"Y","DERM_FL":"N","TRT01A":"Xanomeline High Dose","TRT01AN":3,"SAFFL":"Y","ITTFL":"Y","SITEID":"701","AGE":56,"SEX":"M","RACE":"WHITE","ARMCD":"Xan_Hi","TRTSDT":"2013-02-12","TRTEDT":"2013-03-18"},{"STUDYID":"CDISCPILOT01","USUBJID":"01-701-1180","DOMAIN":"ADAE","AESEQ":9,"AETERM":"APPLICATION SITE ERYTHEMA","AELLT":"APPLICATION SITE ERYTHEMA","AELLTCD":null,"AEDECOD":"APPLICATION SITE ERYTHEMA","AEPTCD":null,"AEHLT":"HLT_0617","AEHLTCD":null,"AEHLGT":"HLGT_0152","AEHLGTCD":null,"AEBODSYS":"GENERAL DISORDERS AND ADMINISTRATION SITE CONDITIONS","AEBDSYCD":null,"AESOC":"GENERAL DISORDERS AND ADMINISTRATION SITE CONDITIONS","AESOCCD":null,"ASTDT":"2013-03-19","ASTDY":36,"AENDT":null,"AENDY":null,"AESEV":"MODERATE","AESEVN":2,"AESER":"N","AESERF":"N","AEACN":"","AEACNN":null,"AEREL":"POSSIBLE","AEOUT":"NOT RECOVERED/NOT RESOLVED","AESCONG":"N","AESDISAB":"N","AESDTH":"N","AESDTHFL":"N","AESHOSP":"N","AESLIFE":"N","AESOD":"N","TRTEMFL":"Y","DERM_FL":"N","TRT01A":"Xanomeline High Dose","TRT01AN":3,"SAFFL":"Y","ITTFL":"Y","SITEID":"701","AGE":56,"SEX":"M","RACE":"WHITE","ARMCD":"Xan_Hi","TRTSDT":"2013-02-12","TRTEDT":"2013-03-18"},{"STUDYID":"CDISCPILOT01","USUBJID":"01-701-1181","DOMAIN":"ADAE","AESEQ":1,"AETERM":"AGITATION","AELLT":"AGITATION","AELLTCD":null,"AEDECOD":"AGITATION","AEPTCD":null,"AEHLT":"HLT_0140","AEHLTCD":null,"AEHLGT":"HLGT_0170","AEHLGTCD":null,"AEBODSYS":"PSYCHIATRIC DISORDERS","AEBDSYCD":null,"AESOC":"PSYCHIATRIC DISORDERS","AESOCCD":null,"ASTDT":"2013-12-09","ASTDY":5,"AENDT":"2013-12-09","AENDY":5,"AESEV":"MODERATE","AESEVN":2,"AESER":"N","AESERF":"N","AEACN":"","AEACNN":null,"AEREL":"NONE","AEOUT":"RECOVERED/RESOLVED","AESCONG":"N","AESDISAB":"N","AESDTH":"N","AESDTHFL":"N","AESHOSP":"N","AESLIFE":"N","AESOD":"N","TRTEMFL":"Y","DERM_FL":"N","TRT01A":"Xanomeline High Dose","TRT01AN":3,"SAFFL":"Y","ITTFL":"Y","SITEID":"701","AGE":79,"SEX":"F","RACE":"WHITE","ARMCD":"Xan_Hi","TRTSDT":"2013-12-05","TRTEDT":"2013-12-09"},{"STUDYID":"CDISCPILOT01","USUBJID":"01-701-1188","DOMAIN":"ADAE","AESEQ":1,"AETERM":"ERYTHEMA","AELLT":"ERYTHEMA","AELLTCD":null,"AEDECOD":"ERYTHEMA","AEPTCD":null,"AEHLT":"HLT_0284","AEHLTCD":null,"AEHLGT":"HLGT_0192","AEHLGTCD":null,"AEBODSYS":"SKIN AND SUBCUTANEOUS TISSUE DISORDERS","AEBDSYCD":null,"AESOC":"SKIN AND SUBCUTANEOUS TISSUE DISORDERS","AESOCCD":null,"ASTDT":"2013-02-16","ASTDY":2,"AENDT":null,"AENDY":null,"AESEV":"MILD","AESEVN":1,"AESER":"N","AESERF":"N","AEACN":"","AEACNN":null,"AEREL":"PROBABLE","AEOUT":"NOT RECOVERED/NOT RESOLVED","AESCONG":"N","AESDISAB":"N","AESDTH":"N","AESDTHFL":"N","AESHOSP":"N","AESLIFE":"N","AESOD":"N","TRTEMFL":"Y","DERM_FL":"Y","TRT01A":"Xanomeline Low Dose","TRT01AN":2,"SAFFL":"Y","ITTFL":"Y","SITEID":"701","AGE":71,"SEX":"M","RACE":"WHITE","ARMCD":"Xan_Lo","TRTSDT":"2013-02-15","TRTEDT":"2013-03-24"},{"STUDYID":"CDISCPILOT01","USUBJID":"01-701-1188","DOMAIN":"ADAE","AESEQ":2,"AETERM":"PRURITUS","AELLT":"ITCHING","AELLTCD":null,"AEDECOD":"PRURITUS","AEPTCD":null,"AEHLT":"HLT_0778","AEHLTCD":null,"AEHLGT":"HLGT_0695","AEHLGTCD":null,"AEBODSYS":"SKIN AND SUBCUTANEOUS TISSUE DISORDERS","AEBDSYCD":null,"AESOC":"SKIN AND SUBCUTANEOUS TISSUE DISORDERS","AESOCCD":null,"ASTDT":"2013-02-16","ASTDY":2,"AENDT":null,"AENDY":null,"AESEV":"MILD","AESEVN":1,"AESER":"N","AESERF":"N","AEACN":"","AEACNN":null,"AEREL":"PROBABLE","AEOUT":"NOT RECOVERED/NOT RESOLVED","AESCONG":"N","AESDISAB":"N","AESDTH":"N","AESDTHFL":"N","AESHOSP":"N","AESLIFE":"N","AESOD":"N","TRTEMFL":"Y","DERM_FL":"Y","TRT01A":"Xanomeline Low Dose","TRT01AN":2,"SAFFL":"Y","ITTFL":"Y","SITEID":"701","AGE":71,"SEX":"M","RACE":"WHITE","ARMCD":"Xan_Lo","TRTSDT":"2013-02-15","TRTEDT":"2013-03-24"},{"STUDYID":"CDISCPILOT01","USUBJID":"01-701-1188","DOMAIN":"ADAE","AESEQ":3,"AETERM":"ERYTHEMA","AELLT":"ERYTHEMA","AELLTCD":null,"AEDECOD":"ERYTHEMA","AEPTCD":null,"AEHLT":"HLT_0284","AEHLTCD":null,"AEHLGT":"HLGT_0192","AEHLGTCD":null,"AEBODSYS":"SKIN AND SUBCUTANEOUS TISSUE DISORDERS","AEBDSYCD":null,"AESOC":"SKIN AND SUBCUTANEOUS TISSUE DISORDERS","AESOCCD":null,"ASTDT":"2013-02-16","ASTDY":2,"AENDT":null,"AENDY":null,"AESEV":"MODERATE","AESEVN":2,"AESER":"N","AESERF":"N","AEACN":"","AEACNN":null,"AEREL":"PROBABLE","AEOUT":"NOT RECOVERED/NOT RESOLVED","AESCONG":"N","AESDISAB":"N","AESDTH":"N","AESDTHFL":"N","AESHOSP":"N","AESLIFE":"N","AESOD":"N","TRTEMFL":"Y","DERM_FL":"Y","TRT01A":"Xanomeline Low Dose","TRT01AN":2,"SAFFL":"Y","ITTFL":"Y","SITEID":"701","AGE":71,"SEX":"M","RACE":"WHITE","ARMCD":"Xan_Lo","TRTSDT":"2013-02-15","TRTEDT":"2013-03-24"},{"STUDYID":"CDISCPILOT01","USUBJID":"01-701-1188","DOMAIN":"ADAE","AESEQ":4,"AETERM":"PRURITUS","AELLT":"ITCHING","AELLTCD":null,"AEDECOD":"PRURITUS","AEPTCD":null,"AEHLT":"HLT_0778","AEHLTCD":null,"AEHLGT":"HLGT_0695","AEHLGTCD":null,"AEBODSYS":"SKIN AND SUBCUTANEOUS TISSUE DISORDERS","AEBDSYCD":null,"AESOC":"SKIN AND SUBCUTANEOUS TISSUE DISORDERS","AESOCCD":null,"ASTDT":"2013-02-16","ASTDY":2,"AENDT":null,"AENDY":null,"AESEV":"MODERATE","AESEVN":2,"AESER":"N","AESERF":"N","AEACN":"","AEACNN":null,"AEREL":"PROBABLE","AEOUT":"NOT RECOVERED/NOT RESOLVED","AESCONG":"N","AESDISAB":"N","AESDTH":"N","AESDTHFL":"N","AESHOSP":"N","AESLIFE":"N","AESOD":"N","TRTEMFL":"Y","DERM_FL":"Y","TRT01A":"Xanomeline Low Dose","TRT01AN":2,"SAFFL":"Y","ITTFL":"Y","SITEID":"701","AGE":71,"SEX":"M","RACE":"WHITE","ARMCD":"Xan_Lo","TRTSDT":"2013-02-15","TRTEDT":"2013-03-24"},{"STUDYID":"CDISCPILOT01","USUBJID":"01-701-1188","DOMAIN":"ADAE","AESEQ":5,"AETERM":"URTICARIA","AELLT":"WELTS","AELLTCD":null,"AEDECOD":"URTICARIA","AEPTCD":null,"AEHLT":"HLT_0420","AEHLTCD":null,"AEHLGT":"HLGT_0705","AEHLGTCD":null,"AEBODSYS":"SKIN AND SUBCUTANEOUS TISSUE DISORDERS","AEBDSYCD":null,"AESOC":"SKIN AND SUBCUTANEOUS TISSUE DISORDERS","AESOCCD":null,"ASTDT":"2013-03-04","ASTDY":18,"AENDT":null,"AENDY":null,"AESEV":"MILD","AESEVN":1,"AESER":"N","AESERF":"N","AEACN":"","AEACNN":null,"AEREL":"PROBABLE","AEOUT":"NOT RECOVERED/NOT RESOLVED","AESCONG":"N","AESDISAB":"N","AESDTH":"N","AESDTHFL":"N","AESHOSP":"N","AESLIFE":"N","AESOD":"N","TRTEMFL":"Y","DERM_FL":"Y","TRT01A":"Xanomeline Low Dose","TRT01AN":2,"SAFFL":"Y","ITTFL":"Y","SITEID":"701","AGE":71,"SEX":"M","RACE":"WHITE","ARMCD":"Xan_Lo","TRTSDT":"2013-02-15","TRTEDT":"2013-03-24"},{"STUDYID":"CDISCPILOT01","USUBJID":"01-701-1188","DOMAIN":"ADAE","AESEQ":6,"AETERM":"URTICARIA","AELLT":"WELTS","AELLTCD":null,"AEDECOD":"URTICARIA","AEPTCD":null,"AEHLT":"HLT_0420","AEHLTCD":null,"AEHLGT":"HLGT_0705","AEHLGTCD":null,"AEBODSYS":"SKIN AND SUBCUTANEOUS TISSUE DISORDERS","AEBDSYCD":null,"AESOC":"SKIN AND SUBCUTANEOUS TISSUE DISORDERS","AESOCCD":null,"ASTDT":"2013-03-04","ASTDY":18,"AENDT":null,"AENDY":null,"AESEV":"MODERATE","AESEVN":2,"AESER":"N","AESERF":"N","AEACN":"","AEACNN":null,"AEREL":"PROBABLE","AEOUT":"NOT RECOVERED/NOT RESOLVED","AESCONG":"N","AESDISAB":"N","AESDTH":"N","AESDTHFL":"N","AESHOSP":"N","AESLIFE":"N","AESOD":"N","TRTEMFL":"Y","DERM_FL":"Y","TRT01A":"Xanomeline Low Dose","TRT01AN":2,"SAFFL":"Y","ITTFL":"Y","SITEID":"701","AGE":71,"SEX":"M","RACE":"WHITE","ARMCD":"Xan_Lo","TRTSDT":"2013-02-15","TRTEDT":"2013-03-24"},{"STUDYID":"CDISCPILOT01","USUBJID":"01-701-1188","DOMAIN":"ADAE","AESEQ":7,"AETERM":"APPLICATION SITE URTICARIA","AELLT":"APPLICATION SITE URTICARIA","AELLTCD":null,"AEDECOD":"APPLICATION SITE URTICARIA","AEPTCD":null,"AEHLT":"HLT_0196","AEHLTCD":null,"AEHLGT":"HLGT_0233","AEHLGTCD":null,"AEBODSYS":"GENERAL DISORDERS AND ADMINISTRATION SITE CONDITIONS","AEBDSYCD":null,"AESOC":"GENERAL DISORDERS AND ADMINISTRATION SITE CONDITIONS","AESOCCD":null,"ASTDT":"2013-03-21","ASTDY":35,"AENDT":null,"AENDY":null,"AESEV":"MILD","AESEVN":1,"AESER":"N","AESERF":"N","AEACN":"","AEACNN":null,"AEREL":"PROBABLE","AEOUT":"NOT RECOVERED/NOT RESOLVED","AESCONG":"N","AESDISAB":"N","AESDTH":"N","AESDTHFL":"N","AESHOSP":"N","AESLIFE":"N","AESOD":"N","TRTEMFL":"Y","DERM_FL":"N","TRT01A":"Xanomeline Low Dose","TRT01AN":2,"SAFFL":"Y","ITTFL":"Y","SITEID":"701","AGE":71,"SEX":"M","RACE":"WHITE","ARMCD":"Xan_Lo","TRTSDT":"2013-02-15","TRTEDT":"2013-03-24"},{"STUDYID":"CDISCPILOT01","USUBJID":"01-701-1188","DOMAIN":"ADAE","AESEQ":8,"AETERM":"URTICARIA","AELLT":"WELTS","AELLTCD":null,"AEDECOD":"URTICARIA","AEPTCD":null,"AEHLT":"HLT_0420","AEHLTCD":null,"AEHLGT":"HLGT_0705","AEHLGTCD":null,"AEBODSYS":"SKIN AND SUBCUTANEOUS TISSUE DISORDERS","AEBDSYCD":null,"AESOC":"SKIN AND SUBCUTANEOUS TISSUE DISORDERS","AESOCCD":null,"ASTDT":"2013-03-21","ASTDY":35,"AENDT":null,"AENDY":null,"AESEV":"MILD","AESEVN":1,"AESER":"N","AESERF":"N","AEACN":"","AEACNN":null,"AEREL":"PROBABLE","AEOUT":"NOT RECOVERED/NOT RESOLVED","AESCONG":"N","AESDISAB":"N","AESDTH":"N","AESDTHFL":"N","AESHOSP":"N","AESLIFE":"N","AESOD":"N","TRTEMFL":"Y","DERM_FL":"Y","TRT01A":"Xanomeline Low Dose","TRT01AN":2,"SAFFL":"Y","ITTFL":"Y","SITEID":"701","AGE":71,"SEX":"M","RACE":"WHITE","ARMCD":"Xan_Lo","TRTSDT":"2013-02-15","TRTEDT":"2013-03-24"},{"STUDYID":"CDISCPILOT01","USUBJID":"01-701-1192","DOMAIN":"ADAE","AESEQ":1,"AETERM":"NASAL MUCOSA BIOPSY","AELLT":"NASAL MUCOSA BIOPSY","AELLTCD":null,"AEDECOD":"NASAL MUCOSA BIOPSY","AEPTCD":null,"AEHLT":"HLT_0680","AEHLTCD":null,"AEHLGT":"HLGT_0396","AEHLGTCD":null,"AEBODSYS":"INVESTIGATIONS","AEBDSYCD":null,"AESOC":"INVESTIGATIONS","AESOCCD":null,"ASTDT":"2012-08-03","ASTDY":13,"AENDT":"2012-08-03","AENDY":13,"AESEV":"MILD","AESEVN":1,"AESER":"N","AESERF":"N","AEACN":"","AEACNN":null,"AEREL":"NONE","AEOUT":"RECOVERED/RESOLVED","AESCONG":"N","AESDISAB":"N","AESDTH":"N","AESDTHFL":"N","AESHOSP":"N","AESLIFE":"N","AESOD":"N","TRTEMFL":"Y","DERM_FL":"N","TRT01A":"Xanomeline Low Dose","TRT01AN":2,"SAFFL":"Y","ITTFL":"Y","SITEID":"701","AGE":80,"SEX":"F","RACE":"WHITE","ARMCD":"Xan_Lo","TRTSDT":"2012-07-22","TRTEDT":"2013-01-20"},{"STUDYID":"CDISCPILOT01","USUBJID":"01-701-1192","DOMAIN":"ADAE","AESEQ":2,"AETERM":"SECRETION DISCHARGE","AELLT":"SECRETION DISCHARGE","AELLTCD":null,"AEDECOD":"SECRETION DISCHARGE","AEPTCD":null,"AEHLT":"HLT_0683","AEHLTCD":null,"AEHLGT":"HLGT_0575","AEHLGTCD":null,"AEBODSYS":"GENERAL DISORDERS AND ADMINISTRATION SITE CONDITIONS","AEBDSYCD":null,"AESOC":"GENERAL DISORDERS AND ADMINISTRATION SITE CONDITIONS","AESOCCD":null,"ASTDT":"2012-08-07","ASTDY":17,"AENDT":"2012-09-14","AENDY":55,"AESEV":"MILD","AESEVN":1,"AESER":"N","AESERF":"N","AEACN":"","AEACNN":null,"AEREL":"NONE","AEOUT":"NOT RECOVERED/NOT RESOLVED","AESCONG":"N","AESDISAB":"N","AESDTH":"N","AESDTHFL":"N","AESHOSP":"N","AESLIFE":"N","AESOD":"N","TRTEMFL":"Y","DERM_FL":"N","TRT01A":"Xanomeline Low Dose","TRT01AN":2,"SAFFL":"Y","ITTFL":"Y","SITEID":"701","AGE":80,"SEX":"F","RACE":"WHITE","ARMCD":"Xan_Lo","TRTSDT":"2012-07-22","TRTEDT":"2013-01-20"},{"STUDYID":"CDISCPILOT01","USUBJID":"01-701-1192","DOMAIN":"ADAE","AESEQ":3,"AETERM":"ERYTHEMA","AELLT":"ERYTHEMA FACIAL","AELLTCD":null,"AEDECOD":"ERYTHEMA","AEPTCD":null,"AEHLT":"HLT_0284","AEHLTCD":null,"AEHLGT":"HLGT_0192","AEHLGTCD":null,"AEBODSYS":"SKIN AND SUBCUTANEOUS TISSUE DISORDERS","AEBDSYCD":null,"AESOC":"SKIN AND SUBCUTANEOUS TISSUE DISORDERS","AESOCCD":null,"ASTDT":"2012-08-07","ASTDY":17,"AENDT":"2012-09-14","AENDY":55,"AESEV":"MILD","AESEVN":1,"AESER":"N","AESERF":"N","AEACN":"","AEACNN":null,"AEREL":"NONE","AEOUT":"NOT RECOVERED/NOT RESOLVED","AESCONG":"N","AESDISAB":"N","AESDTH":"N","AESDTHFL":"N","AESHOSP":"N","AESLIFE":"N","AESOD":"N","TRTEMFL":"Y","DERM_FL":"Y","TRT01A":"Xanomeline Low Dose","TRT01AN":2,"SAFFL":"Y","ITTFL":"Y","SITEID":"701","AGE":80,"SEX":"F","RACE":"WHITE","ARMCD":"Xan_Lo","TRTSDT":"2012-07-22","TRTEDT":"2013-01-20"},{"STUDYID":"CDISCPILOT01","USUBJID":"01-701-1192","DOMAIN":"ADAE","AESEQ":4,"AETERM":"COUGH","AELLT":"COUGH","AELLTCD":null,"AEDECOD":"COUGH","AEPTCD":null,"AEHLT":"HLT_0701","AEHLTCD":null,"AEHLGT":"HLGT_0280","AEHLGTCD":null,"AEBODSYS":"RESPIRATORY, THORACIC AND MEDIASTINAL DISORDERS","AEBDSYCD":null,"AESOC":"RESPIRATORY, THORACIC AND MEDIASTINAL DISORDERS","AESOCCD":null,"ASTDT":null,"ASTDY":null,"AENDT":null,"AENDY":null,"AESEV":"MODERATE","AESEVN":2,"AESER":"N","AESERF":"N","AEACN":"","AEACNN":null,"AEREL":"NONE","AEOUT":"NOT RECOVERED/NOT RESOLVED","AESCONG":"N","AESDISAB":"N","AESDTH":"N","AESDTHFL":"N","AESHOSP":"N","AESLIFE":"N","AESOD":"N","TRTEMFL":"N","DERM_FL":"N","TRT01A":"Xanomeline Low Dose","TRT01AN":2,"SAFFL":"Y","ITTFL":"Y","SITEID":"701","AGE":80,"SEX":"F","RACE":"WHITE","ARMCD":"Xan_Lo","TRTSDT":"2012-07-22","TRTEDT":"2013-01-20"},{"STUDYID":"CDISCPILOT01","USUBJID":"01-701-1192","DOMAIN":"ADAE","AESEQ":5,"AETERM":"SECRETION DISCHARGE","AELLT":"SECRETION DISCHARGE","AELLTCD":null,"AEDECOD":"SECRETION DISCHARGE","AEPTCD":null,"AEHLT":"HLT_0683","AEHLTCD":null,"AEHLGT":"HLGT_0575","AEHLGTCD":null,"AEBODSYS":"GENERAL DISORDERS AND ADMINISTRATION SITE CONDITIONS","AEBDSYCD":null,"AESOC":"GENERAL DISORDERS AND ADMINISTRATION SITE CONDITIONS","AESOCCD":null,"ASTDT":"2012-08-07","ASTDY":17,"AENDT":"2012-09-14","AENDY":55,"AESEV":"MILD","AESEVN":1,"AESER":"N","AESERF":"N","AEACN":"","AEACNN":null,"AEREL":"NONE","AEOUT":"RECOVERED/RESOLVED","AESCONG":"N","AESDISAB":"N","AESDTH":"N","AESDTHFL":"N","AESHOSP":"N","AESLIFE":"N","AESOD":"N","TRTEMFL":"Y","DERM_FL":"N","TRT01A":"Xanomeline Low Dose","TRT01AN":2,"SAFFL":"Y","ITTFL":"Y","SITEID":"701","AGE":80,"SEX":"F","RACE":"WHITE","ARMCD":"Xan_Lo","TRTSDT":"2012-07-22","TRTEDT":"2013-01-20"},{"STUDYID":"CDISCPILOT01","USUBJID":"01-701-1192","DOMAIN":"ADAE","AESEQ":6,"AETERM":"ERYTHEMA","AELLT":"ERYTHEMA FACIAL","AELLTCD":null,"AEDECOD":"ERYTHEMA","AEPTCD":null,"AEHLT":"HLT_0284","AEHLTCD":null,"AEHLGT":"HLGT_0192","AEHLGTCD":null,"AEBODSYS":"SKIN AND SUBCUTANEOUS TISSUE DISORDERS","AEBDSYCD":null,"AESOC":"SKIN AND SUBCUTANEOUS TISSUE DISORDERS","AESOCCD":null,"ASTDT":"2012-08-07","ASTDY":17,"AENDT":"2012-09-14","AENDY":55,"AESEV":"MILD","AESEVN":1,"AESER":"N","AESERF":"N","AEACN":"","AEACNN":null,"AEREL":"NONE","AEOUT":"RECOVERED/RESOLVED","AESCONG":"N","AESDISAB":"N","AESDTH":"N","AESDTHFL":"N","AESHOSP":"N","AESLIFE":"N","AESOD":"N","TRTEMFL":"Y","DERM_FL":"Y","TRT01A":"Xanomeline Low Dose","TRT01AN":2,"SAFFL":"Y","ITTFL":"Y","SITEID":"701","AGE":80,"SEX":"F","RACE":"WHITE","ARMCD":"Xan_Lo","TRTSDT":"2012-07-22","TRTEDT":"2013-01-20"},{"STUDYID":"CDISCPILOT01","USUBJID":"01-701-1192","DOMAIN":"ADAE","AESEQ":7,"AETERM":"PNEUMONIA","AELLT":"PNEUMONIA","AELLTCD":null,"AEDECOD":"PNEUMONIA","AEPTCD":null,"AEHLT":"HLT_0251","AEHLTCD":null,"AEHLGT":"HLGT_0671","AEHLGTCD":null,"AEBODSYS":"INFECTIONS AND INFESTATIONS","AEBDSYCD":null,"AESOC":"INFECTIONS AND INFESTATIONS","AESOCCD":null,"ASTDT":"2012-09-07","ASTDY":48,"AENDT":"2012-10-06","AENDY":77,"AESEV":"MODERATE","AESEVN":2,"AESER":"N","AESERF":"N","AEACN":"","AEACNN":null,"AEREL":"NONE","AEOUT":"NOT RECOVERED/NOT RESOLVED","AESCONG":"N","AESDISAB":"N","AESDTH":"N","AESDTHFL":"N","AESHOSP":"Y","AESLIFE":"N","AESOD":"N","TRTEMFL":"Y","DERM_FL":"N","TRT01A":"Xanomeline Low Dose","TRT01AN":2,"SAFFL":"Y","ITTFL":"Y","SITEID":"701","AGE":80,"SEX":"F","RACE":"WHITE","ARMCD":"Xan_Lo","TRTSDT":"2012-07-22","TRTEDT":"2013-01-20"},{"STUDYID":"CDISCPILOT01","USUBJID":"01-701-1192","DOMAIN":"ADAE","AESEQ":8,"AETERM":"MUSCULAR WEAKNESS","AELLT":"MUSCULAR WEAKNESS","AELLTCD":null,"AEDECOD":"MUSCULAR WEAKNESS","AEPTCD":null,"AEHLT":"HLT_0444","AEHLTCD":null,"AEHLGT":"HLGT_0211","AEHLGTCD":null,"AEBODSYS":"MUSCULOSKELETAL AND CONNECTIVE TISSUE DISORDERS","AEBDSYCD":null,"AESOC":"MUSCULOSKELETAL AND CONNECTIVE TISSUE DISORDERS","AESOCCD":null,"ASTDT":"2012-09-07","ASTDY":48,"AENDT":"2012-09-30","AENDY":71,"AESEV":"MODERATE","AESEVN":2,"AESER":"N","AESERF":"N","AEACN":"","AEACNN":null,"AEREL":"NONE","AEOUT":"NOT RECOVERED/NOT RESOLVED","AESCONG":"N","AESDISAB":"N","AESDTH":"N","AESDTHFL":"N","AESHOSP":"N","AESLIFE":"N","AESOD":"N","TRTEMFL":"Y","DERM_FL":"N","TRT01A":"Xanomeline Low Dose","TRT01AN":2,"SAFFL":"Y","ITTFL":"Y","SITEID":"701","AGE":80,"SEX":"F","RACE":"WHITE","ARMCD":"Xan_Lo","TRTSDT":"2012-07-22","TRTEDT":"2013-01-20"},{"STUDYID":"CDISCPILOT01","USUBJID":"01-701-1192","DOMAIN":"ADAE","AESEQ":9,"AETERM":"COUGH","AELLT":"COUGH","AELLTCD":null,"AEDECOD":"COUGH","AEPTCD":null,"AEHLT":"HLT_0701","AEHLTCD":null,"AEHLGT":"HLGT_0280","AEHLGTCD":null,"AEBODSYS":"RESPIRATORY, THORACIC AND MEDIASTINAL DISORDERS","AEBDSYCD":null,"AESOC":"RESPIRATORY, THORACIC AND MEDIASTINAL DISORDERS","AESOCCD":null,"ASTDT":null,"ASTDY":null,"AENDT":null,"AENDY":null,"AESEV":"MILD","AESEVN":1,"AESER":"N","AESERF":"N","AEACN":"","AEACNN":null,"AEREL":"NONE","AEOUT":"NOT RECOVERED/NOT RESOLVED","AESCONG":"N","AESDISAB":"N","AESDTH":"N","AESDTHFL":"N","AESHOSP":"N","AESLIFE":"N","AESOD":"N","TRTEMFL":"N","DERM_FL":"N","TRT01A":"Xanomeline Low Dose","TRT01AN":2,"SAFFL":"Y","ITTFL":"Y","SITEID":"701","AGE":80,"SEX":"F","RACE":"WHITE","ARMCD":"Xan_Lo","TRTSDT":"2012-07-22","TRTEDT":"2013-01-20"},{"STUDYID":"CDISCPILOT01","USUBJID":"01-701-1192","DOMAIN":"ADAE","AESEQ":10,"AETERM":"PNEUMONIA","AELLT":"PNEUMONIA","AELLTCD":null,"AEDECOD":"PNEUMONIA","AEPTCD":null,"AEHLT":"HLT_0251","AEHLTCD":null,"AEHLGT":"HLGT_0671","AEHLGTCD":null,"AEBODSYS":"INFECTIONS AND INFESTATIONS","AEBDSYCD":null,"AESOC":"INFECTIONS AND INFESTATIONS","AESOCCD":null,"ASTDT":"2012-09-07","ASTDY":48,"AENDT":"2012-10-06","AENDY":77,"AESEV":"MODERATE","AESEVN":2,"AESER":"N","AESERF":"N","AEACN":"","AEACNN":null,"AEREL":"NONE","AEOUT":"RECOVERED/RESOLVED","AESCONG":"N","AESDISAB":"N","AESDTH":"N","AESDTHFL":"N","AESHOSP":"Y","AESLIFE":"N","AESOD":"N","TRTEMFL":"Y","DERM_FL":"N","TRT01A":"Xanomeline Low Dose","TRT01AN":2,"SAFFL":"Y","ITTFL":"Y","SITEID":"701","AGE":80,"SEX":"F","RACE":"WHITE","ARMCD":"Xan_Lo","TRTSDT":"2012-07-22","TRTEDT":"2013-01-20"},{"STUDYID":"CDISCPILOT01","USUBJID":"01-701-1192","DOMAIN":"ADAE","AESEQ":11,"AETERM":"MUSCULAR WEAKNESS","AELLT":"MUSCULAR WEAKNESS","AELLTCD":null,"AEDECOD":"MUSCULAR WEAKNESS","AEPTCD":null,"AEHLT":"HLT_0444","AEHLTCD":null,"AEHLGT":"HLGT_0211","AEHLGTCD":null,"AEBODSYS":"MUSCULOSKELETAL AND CONNECTIVE TISSUE DISORDERS","AEBDSYCD":null,"AESOC":"MUSCULOSKELETAL AND CONNECTIVE TISSUE DISORDERS","AESOCCD":null,"ASTDT":"2012-09-07","ASTDY":48,"AENDT":"2012-09-30","AENDY":71,"AESEV":"MODERATE","AESEVN":2,"AESER":"N","AESERF":"N","AEACN":"","AEACNN":null,"AEREL":"NONE","AEOUT":"RECOVERED/RESOLVED","AESCONG":"N","AESDISAB":"N","AESDTH":"N","AESDTHFL":"N","AESHOSP":"N","AESLIFE":"N","AESOD":"N","TRTEMFL":"Y","DERM_FL":"N","TRT01A":"Xanomeline Low Dose","TRT01AN":2,"SAFFL":"Y","ITTFL":"Y","SITEID":"701","AGE":80,"SEX":"F","RACE":"WHITE","ARMCD":"Xan_Lo","TRTSDT":"2012-07-22","TRTEDT":"2013-01-20"},{"STUDYID":"CDISCPILOT01","USUBJID":"01-701-1192","DOMAIN":"ADAE","AESEQ":12,"AETERM":"APPLICATION SITE IRRITATION","AELLT":"APPLICATION SITE BURNING","AELLTCD":null,"AEDECOD":"APPLICATION SITE IRRITATION","AEPTCD":null,"AEHLT":"HLT_0061","AEHLTCD":null,"AEHLGT":"HLGT_0346","AEHLGTCD":null,"AEBODSYS":"GENERAL DISORDERS AND ADMINISTRATION SITE CONDITIONS","AEBDSYCD":null,"AESOC":"GENERAL DISORDERS AND ADMINISTRATION SITE CONDITIONS","AESOCCD":null,"ASTDT":"2012-12-05","ASTDY":137,"AENDT":"2012-12-16","AENDY":148,"AESEV":"MILD","AESEVN":1,"AESER":"N","AESERF":"N","AEACN":"","AEACNN":null,"AEREL":"PROBABLE","AEOUT":"NOT RECOVERED/NOT RESOLVED","AESCONG":"N","AESDISAB":"N","AESDTH":"N","AESDTHFL":"N","AESHOSP":"N","AESLIFE":"N","AESOD":"N","TRTEMFL":"Y","DERM_FL":"N","TRT01A":"Xanomeline Low Dose","TRT01AN":2,"SAFFL":"Y","ITTFL":"Y","SITEID":"701","AGE":80,"SEX":"F","RACE":"WHITE","ARMCD":"Xan_Lo","TRTSDT":"2012-07-22","TRTEDT":"2013-01-20"},{"STUDYID":"CDISCPILOT01","USUBJID":"01-701-1192","DOMAIN":"ADAE","AESEQ":13,"AETERM":"APPLICATION SITE ERYTHEMA","AELLT":"APPLICATION SITE REDNESS","AELLTCD":null,"AEDECOD":"APPLICATION SITE ERYTHEMA","AEPTCD":null,"AEHLT":"HLT_0617","AEHLTCD":null,"AEHLGT":"HLGT_0152","AEHLGTCD":null,"AEBODSYS":"GENERAL DISORDERS AND ADMINISTRATION SITE CONDITIONS","AEBDSYCD":null,"AESOC":"GENERAL DISORDERS AND ADMINISTRATION SITE CONDITIONS","AESOCCD":null,"ASTDT":"2012-12-05","ASTDY":137,"AENDT":null,"AENDY":null,"AESEV":"MILD","AESEVN":1,"AESER":"N","AESERF":"N","AEACN":"","AEACNN":null,"AEREL":"PROBABLE","AEOUT":"NOT RECOVERED/NOT RESOLVED","AESCONG":"N","AESDISAB":"N","AESDTH":"N","AESDTHFL":"N","AESHOSP":"N","AESLIFE":"N","AESOD":"N","TRTEMFL":"Y","DERM_FL":"N","TRT01A":"Xanomeline Low Dose","TRT01AN":2,"SAFFL":"Y","ITTFL":"Y","SITEID":"701","AGE":80,"SEX":"F","RACE":"WHITE","ARMCD":"Xan_Lo","TRTSDT":"2012-07-22","TRTEDT":"2013-01-20"},{"STUDYID":"CDISCPILOT01","USUBJID":"01-701-1192","DOMAIN":"ADAE","AESEQ":14,"AETERM":"APPLICATION SITE PRURITUS","AELLT":"APPLICATION SITE ITCHING","AELLTCD":null,"AEDECOD":"APPLICATION SITE PRURITUS","AEPTCD":null,"AEHLT":"HLT_0317","AEHLTCD":null,"AEHLGT":"HLGT_0338","AEHLGTCD":null,"AEBODSYS":"GENERAL DISORDERS AND ADMINISTRATION SITE CONDITIONS","AEBDSYCD":null,"AESOC":"GENERAL DISORDERS AND ADMINISTRATION SITE CONDITIONS","AESOCCD":null,"ASTDT":"2012-12-05","ASTDY":137,"AENDT":null,"AENDY":null,"AESEV":"MILD","AESEVN":1,"AESER":"N","AESERF":"N","AEACN":"","AEACNN":null,"AEREL":"PROBABLE","AEOUT":"NOT RECOVERED/NOT RESOLVED","AESCONG":"N","AESDISAB":"N","AESDTH":"N","AESDTHFL":"N","AESHOSP":"N","AESLIFE":"N","AESOD":"N","TRTEMFL":"Y","DERM_FL":"N","TRT01A":"Xanomeline Low Dose","TRT01AN":2,"SAFFL":"Y","ITTFL":"Y","SITEID":"701","AGE":80,"SEX":"F","RACE":"WHITE","ARMCD":"Xan_Lo","TRTSDT":"2012-07-22","TRTEDT":"2013-01-20"},{"STUDYID":"CDISCPILOT01","USUBJID":"01-701-1192","DOMAIN":"ADAE","AESEQ":15,"AETERM":"APPLICATION SITE IRRITATION","AELLT":"APPLICATION SITE BURNING","AELLTCD":null,"AEDECOD":"APPLICATION SITE IRRITATION","AEPTCD":null,"AEHLT":"HLT_0061","AEHLTCD":null,"AEHLGT":"HLGT_0346","AEHLGTCD":null,"AEBODSYS":"GENERAL DISORDERS AND ADMINISTRATION SITE CONDITIONS","AEBDSYCD":null,"AESOC":"GENERAL DISORDERS AND ADMINISTRATION SITE CONDITIONS","AESOCCD":null,"ASTDT":"2012-12-05","ASTDY":137,"AENDT":"2012-12-16","AENDY":148,"AESEV":"MILD","AESEVN":1,"AESER":"N","AESERF":"N","AEACN":"","AEACNN":null,"AEREL":"PROBABLE","AEOUT":"RECOVERED/RESOLVED","AESCONG":"N","AESDISAB":"N","AESDTH":"N","AESDTHFL":"N","AESHOSP":"N","AESLIFE":"N","AESOD":"N","TRTEMFL":"Y","DERM_FL":"N","TRT01A":"Xanomeline Low Dose","TRT01AN":2,"SAFFL":"Y","ITTFL":"Y","SITEID":"701","AGE":80,"SEX":"F","RACE":"WHITE","ARMCD":"Xan_Lo","TRTSDT":"2012-07-22","TRTEDT":"2013-01-20"},{"STUDYID":"CDISCPILOT01","USUBJID":"01-701-1203","DOMAIN":"ADAE","AESEQ":1,"AETERM":"EYE LASER SURGERY","AELLT":"EYE LASER SURGERY","AELLTCD":null,"AEDECOD":"EYE LASER SURGERY","AEPTCD":null,"AEHLT":"HLT_0355","AEHLTCD":null,"AEHLGT":"HLGT_0189","AEHLGTCD":null,"AEBODSYS":"SURGICAL AND MEDICAL PROCEDURES","AEBDSYCD":null,"AESOC":"SURGICAL AND MEDICAL PROCEDURES","AESOCCD":null,"ASTDT":"2013-03-21","ASTDY":48,"AENDT":"2013-03-21","AENDY":48,"AESEV":"MILD","AESEVN":1,"AESER":"N","AESERF":"N","AEACN":"","AEACNN":null,"AEREL":"NONE","AEOUT":"RECOVERED/RESOLVED","AESCONG":"N","AESDISAB":"N","AESDTH":"N","AESDTHFL":"N","AESHOSP":"N","AESLIFE":"N","AESOD":"N","TRTEMFL":"Y","DERM_FL":"N","TRT01A":"Placebo","TRT01AN":1,"SAFFL":"Y","ITTFL":"Y","SITEID":"701","AGE":81,"SEX":"F","RACE":"BLACK OR AFRICAN AMERICAN","ARMCD":"Pbo","TRTSDT":"2013-02-02","TRTEDT":"2013-08-03"},{"STUDYID":"CDISCPILOT01","USUBJID":"01-701-1211","DOMAIN":"ADAE","AESEQ":1,"AETERM":"APPLICATION SITE PRURITUS","AELLT":"APPLICATION SITE ITCHING","AELLTCD":null,"AEDECOD":"APPLICATION SITE PRURITUS","AEPTCD":null,"AEHLT":"HLT_0317","AEHLTCD":null,"AEHLGT":"HLGT_0338","AEHLGTCD":null,"AEBODSYS":"GENERAL DISORDERS AND ADMINISTRATION SITE CONDITIONS","AEBDSYCD":null,"AESOC":"GENERAL DISORDERS AND ADMINISTRATION SITE CONDITIONS","AESOCCD":null,"ASTDT":"2012-11-16","ASTDY":2,"AENDT":null,"AENDY":null,"AESEV":"MILD","AESEVN":1,"AESER":"N","AESERF":"N","AEACN":"","AEACNN":null,"AEREL":"POSSIBLE","AEOUT":"NOT RECOVERED/NOT RESOLVED","AESCONG":"N","AESDISAB":"N","AESDTH":"N","AESDTHFL":"N","AESHOSP":"N","AESLIFE":"N","AESOD":"N","TRTEMFL":"Y","DERM_FL":"N","TRT01A":"Xanomeline Low Dose","TRT01AN":2,"SAFFL":"Y","ITTFL":"Y","SITEID":"701","AGE":76,"SEX":"F","RACE":"WHITE","ARMCD":"Xan_Lo","TRTSDT":"2012-11-15","TRTEDT":"2013-01-12"},{"STUDYID":"CDISCPILOT01","USUBJID":"01-701-1211","DOMAIN":"ADAE","AESEQ":2,"AETERM":"JOINT DISLOCATION","AELLT":"SHOULDER DISLOCATION","AELLTCD":null,"AEDECOD":"JOINT DISLOCATION","AEPTCD":null,"AEHLT":"HLT_0035","AEHLTCD":null,"AEHLGT":"HLGT_0227","AEHLGTCD":null,"AEBODSYS":"INJURY, POISONING AND PROCEDURAL COMPLICATIONS","AEBDSYCD":null,"AESOC":"INJURY, POISONING AND PROCEDURAL COMPLICATIONS","AESOCCD":null,"ASTDT":"2012-11-21","ASTDY":7,"AENDT":"2012-11-21","AENDY":7,"AESEV":"MODERATE","AESEVN":2,"AESER":"N","AESERF":"N","AEACN":"","AEACNN":null,"AEREL":"NONE","AEOUT":"RECOVERED/RESOLVED","AESCONG":"N","AESDISAB":"N","AESDTH":"N","AESDTHFL":"N","AESHOSP":"N","AESLIFE":"N","AESOD":"N","TRTEMFL":"Y","DERM_FL":"N","TRT01A":"Xanomeline Low Dose","TRT01AN":2,"SAFFL":"Y","ITTFL":"Y","SITEID":"701","AGE":76,"SEX":"F","RACE":"WHITE","ARMCD":"Xan_Lo","TRTSDT":"2012-11-15","TRTEDT":"2013-01-12"},{"STUDYID":"CDISCPILOT01","USUBJID":"01-701-1211","DOMAIN":"ADAE","AESEQ":3,"AETERM":"SHOULDER PAIN","AELLT":"SHOULDER PAIN","AELLTCD":null,"AEDECOD":"SHOULDER PAIN","AEPTCD":null,"AEHLT":"HLT_0527","AEHLTCD":null,"AEHLGT":"HLGT_0288","AEHLGTCD":null,"AEBODSYS":"MUSCULOSKELETAL AND CONNECTIVE TISSUE DISORDERS","AEBDSYCD":null,"AESOC":"MUSCULOSKELETAL AND CONNECTIVE TISSUE DISORDERS","AESOCCD":null,"ASTDT":"2012-11-21","ASTDY":7,"AENDT":null,"AENDY":null,"AESEV":"MILD","AESEVN":1,"AESER":"N","AESERF":"N","AEACN":"","AEACNN":null,"AEREL":"NONE","AEOUT":"NOT RECOVERED/NOT RESOLVED","AESCONG":"N","AESDISAB":"N","AESDTH":"N","AESDTHFL":"N","AESHOSP":"N","AESLIFE":"N","AESOD":"N","TRTEMFL":"Y","DERM_FL":"N","TRT01A":"Xanomeline Low Dose","TRT01AN":2,"SAFFL":"Y","ITTFL":"Y","SITEID":"701","AGE":76,"SEX":"F","RACE":"WHITE","ARMCD":"Xan_Lo","TRTSDT":"2012-11-15","TRTEDT":"2013-01-12"},{"STUDYID":"CDISCPILOT01","USUBJID":"01-701-1211","DOMAIN":"ADAE","AESEQ":4,"AETERM":"INCONTINENCE","AELLT":"INCONTINENCE","AELLTCD":null,"AEDECOD":"INCONTINENCE","AEPTCD":null,"AEHLT":"HLT_0560","AEHLTCD":null,"AEHLGT":"HLGT_0503","AEHLGTCD":null,"AEBODSYS":"RENAL AND URINARY DISORDERS","AEBDSYCD":null,"AESOC":"RENAL AND URINARY DISORDERS","AESOCCD":null,"ASTDT":"2012-11-22","ASTDY":8,"AENDT":null,"AENDY":null,"AESEV":"MILD","AESEVN":1,"AESER":"N","AESERF":"N","AEACN":"","AEACNN":null,"AEREL":"NONE","AEOUT":"NOT RECOVERED/NOT RESOLVED","AESCONG":"N","AESDISAB":"N","AESDTH":"N","AESDTHFL":"N","AESHOSP":"N","AESLIFE":"N","AESOD":"N","TRTEMFL":"Y","DERM_FL":"N","TRT01A":"Xanomeline Low Dose","TRT01AN":2,"SAFFL":"Y","ITTFL":"Y","SITEID":"701","AGE":76,"SEX":"F","RACE":"WHITE","ARMCD":"Xan_Lo","TRTSDT":"2012-11-15","TRTEDT":"2013-01-12"},{"STUDYID":"CDISCPILOT01","USUBJID":"01-701-1211","DOMAIN":"ADAE","AESEQ":5,"AETERM":"APPLICATION SITE ERYTHEMA","AELLT":"APPLICATION SITE REDNESS","AELLTCD":null,"AEDECOD":"APPLICATION SITE ERYTHEMA","AEPTCD":null,"AEHLT":"HLT_0617","AEHLTCD":null,"AEHLGT":"HLGT_0152","AEHLGTCD":null,"AEBODSYS":"GENERAL DISORDERS AND ADMINISTRATION SITE CONDITIONS","AEBDSYCD":null,"AESOC":"GENERAL DISORDERS AND ADMINISTRATION SITE CONDITIONS","AESOCCD":null,"ASTDT":"2012-11-29","ASTDY":15,"AENDT":null,"AENDY":null,"AESEV":"MILD","AESEVN":1,"AESER":"N","AESERF":"N","AEACN":"","AEACNN":null,"AEREL":"POSSIBLE","AEOUT":"NOT RECOVERED/NOT RESOLVED","AESCONG":"N","AESDISAB":"N","AESDTH":"N","AESDTHFL":"N","AESHOSP":"N","AESLIFE":"N","AESOD":"N","TRTEMFL":"Y","DERM_FL":"N","TRT01A":"Xanomeline Low Dose","TRT01AN":2,"SAFFL":"Y","ITTFL":"Y","SITEID":"701","AGE":76,"SEX":"F","RACE":"WHITE","ARMCD":"Xan_Lo","TRTSDT":"2012-11-15","TRTEDT":"2013-01-12"},{"STUDYID":"CDISCPILOT01","USUBJID":"01-701-1211","DOMAIN":"ADAE","AESEQ":6,"AETERM":"SKIN LACERATION","AELLT":"LACERATION OF FACE","AELLTCD":null,"AEDECOD":"SKIN LACERATION","AEPTCD":null,"AEHLT":"HLT_0075","AEHLTCD":null,"AEHLGT":"HLGT_0118","AEHLGTCD":null,"AEBODSYS":"INJURY, POISONING AND PROCEDURAL COMPLICATIONS","AEBDSYCD":null,"AESOC":"INJURY, POISONING AND PROCEDURAL COMPLICATIONS","AESOCCD":null,"ASTDT":"2012-12-09","ASTDY":25,"AENDT":null,"AENDY":null,"AESEV":"MILD","AESEVN":1,"AESER":"N","AESERF":"N","AEACN":"","AEACNN":null,"AEREL":"NONE","AEOUT":"NOT RECOVERED/NOT RESOLVED","AESCONG":"N","AESDISAB":"N","AESDTH":"N","AESDTHFL":"N","AESHOSP":"N","AESLIFE":"N","AESOD":"N","TRTEMFL":"Y","DERM_FL":"N","TRT01A":"Xanomeline Low Dose","TRT01AN":2,"SAFFL":"Y","ITTFL":"Y","SITEID":"701","AGE":76,"SEX":"F","RACE":"WHITE","ARMCD":"Xan_Lo","TRTSDT":"2012-11-15","TRTEDT":"2013-01-12"},{"STUDYID":"CDISCPILOT01","USUBJID":"01-701-1211","DOMAIN":"ADAE","AESEQ":7,"AETERM":"CONFUSIONAL STATE","AELLT":"CONFUSION","AELLTCD":null,"AEDECOD":"CONFUSIONAL STATE","AEPTCD":null,"AEHLT":"HLT_0642","AEHLTCD":null,"AEHLGT":"HLGT_0329","AEHLGTCD":null,"AEBODSYS":"PSYCHIATRIC DISORDERS","AEBDSYCD":null,"AESOC":"PSYCHIATRIC DISORDERS","AESOCCD":null,"ASTDT":"2013-01-11","ASTDY":58,"AENDT":null,"AENDY":null,"AESEV":"MODERATE","AESEVN":2,"AESER":"N","AESERF":"N","AEACN":"","AEACNN":null,"AEREL":"NONE","AEOUT":"NOT RECOVERED/NOT RESOLVED","AESCONG":"N","AESDISAB":"N","AESDTH":"N","AESDTHFL":"N","AESHOSP":"N","AESLIFE":"N","AESOD":"N","TRTEMFL":"Y","DERM_FL":"N","TRT01A":"Xanomeline Low Dose","TRT01AN":2,"SAFFL":"Y","ITTFL":"Y","SITEID":"701","AGE":76,"SEX":"F","RACE":"WHITE","ARMCD":"Xan_Lo","TRTSDT":"2012-11-15","TRTEDT":"2013-01-12"},{"STUDYID":"CDISCPILOT01","USUBJID":"01-701-1211","DOMAIN":"ADAE","AESEQ":8,"AETERM":"DYSPNOEA","AELLT":"SHORTNESS OF BREATH","AELLTCD":null,"AEDECOD":"DYSPNOEA","AEPTCD":null,"AEHLT":"HLT_0296","AEHLTCD":null,"AEHLGT":"HLGT_0255","AEHLGTCD":null,"AEBODSYS":"RESPIRATORY, THORACIC AND MEDIASTINAL DISORDERS","AEBDSYCD":null,"AESOC":"RESPIRATORY, THORACIC AND MEDIASTINAL DISORDERS","AESOCCD":null,"ASTDT":"2013-01-11","ASTDY":58,"AENDT":null,"AENDY":null,"AESEV":"MODERATE","AESEVN":2,"AESER":"N","AESERF":"N","AEACN":"","AEACNN":null,"AEREL":"NONE","AEOUT":"NOT RECOVERED/NOT RESOLVED","AESCONG":"N","AESDISAB":"N","AESDTH":"N","AESDTHFL":"N","AESHOSP":"N","AESLIFE":"N","AESOD":"N","TRTEMFL":"Y","DERM_FL":"N","TRT01A":"Xanomeline Low Dose","TRT01AN":2,"SAFFL":"Y","ITTFL":"Y","SITEID":"701","AGE":76,"SEX":"F","RACE":"WHITE","ARMCD":"Xan_Lo","TRTSDT":"2012-11-15","TRTEDT":"2013-01-12"},{"STUDYID":"CDISCPILOT01","USUBJID":"01-701-1211","DOMAIN":"ADAE","AESEQ":9,"AETERM":"SUDDEN DEATH","AELLT":"SUDDEN DEATH","AELLTCD":null,"AEDECOD":"SUDDEN DEATH","AEPTCD":null,"AEHLT":"HLT_0142","AEHLTCD":null,"AEHLGT":"HLGT_0272","AEHLGTCD":null,"AEBODSYS":"GENERAL DISORDERS AND ADMINISTRATION SITE CONDITIONS","AEBDSYCD":null,"AESOC":"GENERAL DISORDERS AND ADMINISTRATION SITE CONDITIONS","AESOCCD":null,"ASTDT":"2013-01-14","ASTDY":61,"AENDT":"2013-01-14","AENDY":61,"AESEV":"SEVERE","AESEVN":3,"AESER":"N","AESERF":"N","AEACN":"","AEACNN":null,"AEREL":"NONE","AEOUT":"FATAL","AESCONG":"N","AESDISAB":"N","AESDTH":"Y","AESDTHFL":"Y","AESHOSP":"N","AESLIFE":"Y","AESOD":"N","TRTEMFL":"Y","DERM_FL":"N","TRT01A":"Xanomeline Low Dose","TRT01AN":2,"SAFFL":"Y","ITTFL":"Y","SITEID":"701","AGE":76,"SEX":"F","RACE":"WHITE","ARMCD":"Xan_Lo","TRTSDT":"2012-11-15","TRTEDT":"2013-01-12"},{"STUDYID":"CDISCPILOT01","USUBJID":"01-701-1239","DOMAIN":"ADAE","AESEQ":1,"AETERM":"ERYTHEMA","AELLT":"ERYTHEMA","AELLTCD":null,"AEDECOD":"ERYTHEMA","AEPTCD":null,"AEHLT":"HLT_0284","AEHLTCD":null,"AEHLGT":"HLGT_0192","AEHLGTCD":null,"AEBODSYS":"SKIN AND SUBCUTANEOUS TISSUE DISORDERS","AEBDSYCD":null,"AESOC":"SKIN AND SUBCUTANEOUS TISSUE DISORDERS","AESOCCD":null,"ASTDT":"2014-01-12","ASTDY":2,"AENDT":null,"AENDY":null,"AESEV":"MILD","AESEVN":1,"AESER":"N","AESERF":"N","AEACN":"","AEACNN":null,"AEREL":"POSSIBLE","AEOUT":"NOT RECOVERED/NOT RESOLVED","AESCONG":"N","AESDISAB":"N","AESDTH":"N","AESDTHFL":"N","AESHOSP":"N","AESLIFE":"N","AESOD":"N","TRTEMFL":"Y","DERM_FL":"Y","TRT01A":"Xanomeline High Dose","TRT01AN":3,"SAFFL":"Y","ITTFL":"Y","SITEID":"701","AGE":56,"SEX":"M","RACE":"WHITE","ARMCD":"Xan_Hi","TRTSDT":"2014-01-11","TRTEDT":"2014-07-10"},{"STUDYID":"CDISCPILOT01","USUBJID":"01-701-1239","DOMAIN":"ADAE","AESEQ":2,"AETERM":"SKIN ODOUR ABNORMAL","AELLT":"SKIN ODOR ABNORMAL","AELLTCD":null,"AEDECOD":"SKIN ODOUR ABNORMAL","AEPTCD":null,"AEHLT":"HLT_0510","AEHLTCD":null,"AEHLGT":"HLGT_0184","AEHLGTCD":null,"AEBODSYS":"SKIN AND SUBCUTANEOUS TISSUE DISORDERS","AEBDSYCD":null,"AESOC":"SKIN AND SUBCUTANEOUS TISSUE DISORDERS","AESOCCD":null,"ASTDT":"2014-01-12","ASTDY":2,"AENDT":null,"AENDY":null,"AESEV":"MILD","AESEVN":1,"AESER":"N","AESERF":"N","AEACN":"","AEACNN":null,"AEREL":"REMOTE","AEOUT":"NOT RECOVERED/NOT RESOLVED","AESCONG":"N","AESDISAB":"N","AESDTH":"N","AESDTHFL":"N","AESHOSP":"N","AESLIFE":"N","AESOD":"N","TRTEMFL":"Y","DERM_FL":"Y","TRT01A":"Xanomeline High Dose","TRT01AN":3,"SAFFL":"Y","ITTFL":"Y","SITEID":"701","AGE":56,"SEX":"M","RACE":"WHITE","ARMCD":"Xan_Hi","TRTSDT":"2014-01-11","TRTEDT":"2014-07-10"},{"STUDYID":"CDISCPILOT01","USUBJID":"01-701-1239","DOMAIN":"ADAE","AESEQ":3,"AETERM":"PRURITUS","AELLT":"ITCHING","AELLTCD":null,"AEDECOD":"PRURITUS","AEPTCD":null,"AEHLT":"HLT_0778","AEHLTCD":null,"AEHLGT":"HLGT_0695","AEHLGTCD":null,"AEBODSYS":"SKIN AND SUBCUTANEOUS TISSUE DISORDERS","AEBDSYCD":null,"AESOC":"SKIN AND SUBCUTANEOUS TISSUE DISORDERS","AESOCCD":null,"ASTDT":"2014-01-13","ASTDY":3,"AENDT":null,"AENDY":null,"AESEV":"MILD","AESEVN":1,"AESER":"N","AESERF":"N","AEACN":"","AEACNN":null,"AEREL":"POSSIBLE","AEOUT":"NOT RECOVERED/NOT RESOLVED","AESCONG":"N","AESDISAB":"N","AESDTH":"N","AESDTHFL":"N","AESHOSP":"N","AESLIFE":"N","AESOD":"N","TRTEMFL":"Y","DERM_FL":"Y","TRT01A":"Xanomeline High Dose","TRT01AN":3,"SAFFL":"Y","ITTFL":"Y","SITEID":"701","AGE":56,"SEX":"M","RACE":"WHITE","ARMCD":"Xan_Hi","TRTSDT":"2014-01-11","TRTEDT":"2014-07-10"},{"STUDYID":"CDISCPILOT01","USUBJID":"01-701-1239","DOMAIN":"ADAE","AESEQ":4,"AETERM":"APPLICATION SITE IRRITATION","AELLT":"APPLICATION SITE IRRITATION","AELLTCD":null,"AEDECOD":"APPLICATION SITE IRRITATION","AEPTCD":null,"AEHLT":"HLT_0061","AEHLTCD":null,"AEHLGT":"HLGT_0346","AEHLGTCD":null,"AEBODSYS":"GENERAL DISORDERS AND ADMINISTRATION SITE CONDITIONS","AEBDSYCD":null,"AESOC":"GENERAL DISORDERS AND ADMINISTRATION SITE CONDITIONS","AESOCCD":null,"ASTDT":"2014-01-20","ASTDY":10,"AENDT":"2014-02-08","AENDY":29,"AESEV":"MILD","AESEVN":1,"AESER":"N","AESERF":"N","AEACN":"","AEACNN":null,"AEREL":"PROBABLE","AEOUT":"NOT RECOVERED/NOT RESOLVED","AESCONG":"N","AESDISAB":"N","AESDTH":"N","AESDTHFL":"N","AESHOSP":"N","AESLIFE":"N","AESOD":"N","TRTEMFL":"Y","DERM_FL":"N","TRT01A":"Xanomeline High Dose","TRT01AN":3,"SAFFL":"Y","ITTFL":"Y","SITEID":"701","AGE":56,"SEX":"M","RACE":"WHITE","ARMCD":"Xan_Hi","TRTSDT":"2014-01-11","TRTEDT":"2014-07-10"},{"STUDYID":"CDISCPILOT01","USUBJID":"01-701-1239","DOMAIN":"ADAE","AESEQ":5,"AETERM":"APPLICATION SITE IRRITATION","AELLT":"APPLICATION SITE IRRITATION","AELLTCD":null,"AEDECOD":"APPLICATION SITE IRRITATION","AEPTCD":null,"AEHLT":"HLT_0061","AEHLTCD":null,"AEHLGT":"HLGT_0346","AEHLGTCD":null,"AEBODSYS":"GENERAL DISORDERS AND ADMINISTRATION SITE CONDITIONS","AEBDSYCD":null,"AESOC":"GENERAL DISORDERS AND ADMINISTRATION SITE CONDITIONS","AESOCCD":null,"ASTDT":"2014-01-20","ASTDY":10,"AENDT":"2014-02-08","AENDY":29,"AESEV":"MILD","AESEVN":1,"AESER":"N","AESERF":"N","AEACN":"","AEACNN":null,"AEREL":"PROBABLE","AEOUT":"RECOVERED/RESOLVED","AESCONG":"N","AESDISAB":"N","AESDTH":"N","AESDTHFL":"N","AESHOSP":"N","AESLIFE":"N","AESOD":"N","TRTEMFL":"Y","DERM_FL":"N","TRT01A":"Xanomeline High Dose","TRT01AN":3,"SAFFL":"Y","ITTFL":"Y","SITEID":"701","AGE":56,"SEX":"M","RACE":"WHITE","ARMCD":"Xan_Hi","TRTSDT":"2014-01-11","TRTEDT":"2014-07-10"},{"STUDYID":"CDISCPILOT01","USUBJID":"01-701-1239","DOMAIN":"ADAE","AESEQ":6,"AETERM":"ERYTHEMA","AELLT":"ERYTHEMA","AELLTCD":null,"AEDECOD":"ERYTHEMA","AEPTCD":null,"AEHLT":"HLT_0284","AEHLTCD":null,"AEHLGT":"HLGT_0192","AEHLGTCD":null,"AEBODSYS":"SKIN AND SUBCUTANEOUS TISSUE DISORDERS","AEBDSYCD":null,"AESOC":"SKIN AND SUBCUTANEOUS TISSUE DISORDERS","AESOCCD":null,"ASTDT":"2014-01-12","ASTDY":2,"AENDT":null,"AENDY":null,"AESEV":"MODERATE","AESEVN":2,"AESER":"N","AESERF":"N","AEACN":"","AEACNN":null,"AEREL":"POSSIBLE","AEOUT":"NOT RECOVERED/NOT RESOLVED","AESCONG":"N","AESDISAB":"N","AESDTH":"N","AESDTHFL":"N","AESHOSP":"N","AESLIFE":"N","AESOD":"N","TRTEMFL":"Y","DERM_FL":"Y","TRT01A":"Xanomeline High Dose","TRT01AN":3,"SAFFL":"Y","ITTFL":"Y","SITEID":"701","AGE":56,"SEX":"M","RACE":"WHITE","ARMCD":"Xan_Hi","TRTSDT":"2014-01-11","TRTEDT":"2014-07-10"},{"STUDYID":"CDISCPILOT01","USUBJID":"01-701-1239","DOMAIN":"ADAE","AESEQ":7,"AETERM":"UPPER RESPIRATORY TRACT INFECTION","AELLT":"UPPER RESPIRATORY INFECTION","AELLTCD":null,"AEDECOD":"UPPER RESPIRATORY TRACT INFECTION","AEPTCD":null,"AEHLT":"HLT_0520","AEHLTCD":null,"AEHLGT":"HLGT_0489","AEHLGTCD":null,"AEBODSYS":"INFECTIONS AND INFESTATIONS","AEBDSYCD":null,"AESOC":"INFECTIONS AND INFESTATIONS","AESOCCD":null,"ASTDT":"2014-02-20","ASTDY":41,"AENDT":"2014-03-12","AENDY":61,"AESEV":"MILD","AESEVN":1,"AESER":"N","AESERF":"N","AEACN":"","AEACNN":null,"AEREL":"NONE","AEOUT":"NOT RECOVERED/NOT RESOLVED","AESCONG":"N","AESDISAB":"N","AESDTH":"N","AESDTHFL":"N","AESHOSP":"N","AESLIFE":"N","AESOD":"N","TRTEMFL":"Y","DERM_FL":"N","TRT01A":"Xanomeline High Dose","TRT01AN":3,"SAFFL":"Y","ITTFL":"Y","SITEID":"701","AGE":56,"SEX":"M","RACE":"WHITE","ARMCD":"Xan_Hi","TRTSDT":"2014-01-11","TRTEDT":"2014-07-10"},{"STUDYID":"CDISCPILOT01","USUBJID":"01-701-1239","DOMAIN":"ADAE","AESEQ":8,"AETERM":"UPPER RESPIRATORY TRACT INFECTION","AELLT":"UPPER RESPIRATORY INFECTION","AELLTCD":null,"AEDECOD":"UPPER RESPIRATORY TRACT INFECTION","AEPTCD":null,"AEHLT":"HLT_0520","AEHLTCD":null,"AEHLGT":"HLGT_0489","AEHLGTCD":null,"AEBODSYS":"INFECTIONS AND INFESTATIONS","AEBDSYCD":null,"AESOC":"INFECTIONS AND INFESTATIONS","AESOCCD":null,"ASTDT":"2014-02-20","ASTDY":41,"AENDT":"2014-03-12","AENDY":61,"AESEV":"MILD","AESEVN":1,"AESER":"N","AESERF":"N","AEACN":"","AEACNN":null,"AEREL":"NONE","AEOUT":"RECOVERED/RESOLVED","AESCONG":"N","AESDISAB":"N","AESDTH":"N","AESDTHFL":"N","AESHOSP":"N","AESLIFE":"N","AESOD":"N","TRTEMFL":"Y","DERM_FL":"N","TRT01A":"Xanomeline High Dose","TRT01AN":3,"SAFFL":"Y","ITTFL":"Y","SITEID":"701","AGE":56,"SEX":"M","RACE":"WHITE","ARMCD":"Xan_Hi","TRTSDT":"2014-01-11","TRTEDT":"2014-07-10"},{"STUDYID":"CDISCPILOT01","USUBJID":"01-701-1239","DOMAIN":"ADAE","AESEQ":9,"AETERM":"FATIGUE","AELLT":"FATIGUE","AELLTCD":null,"AEDECOD":"FATIGUE","AEPTCD":null,"AEHLT":"HLT_0043","AEHLTCD":null,"AEHLGT":"HLGT_0181","AEHLGTCD":null,"AEBODSYS":"GENERAL DISORDERS AND ADMINISTRATION SITE CONDITIONS","AEBDSYCD":null,"AESOC":"GENERAL DISORDERS AND ADMINISTRATION SITE CONDITIONS","AESOCCD":null,"ASTDT":null,"ASTDY":null,"AENDT":null,"AENDY":null,"AESEV":"MILD","AESEVN":1,"AESER":"N","AESERF":"N","AEACN":"","AEACNN":null,"AEREL":"REMOTE","AEOUT":"NOT RECOVERED/NOT RESOLVED","AESCONG":"N","AESDISAB":"N","AESDTH":"N","AESDTHFL":"N","AESHOSP":"N","AESLIFE":"N","AESOD":"N","TRTEMFL":"Y","DERM_FL":"N","TRT01A":"Xanomeline High Dose","TRT01AN":3,"SAFFL":"Y","ITTFL":"Y","SITEID":"701","AGE":56,"SEX":"M","RACE":"WHITE","ARMCD":"Xan_Hi","TRTSDT":"2014-01-11","TRTEDT":"2014-07-10"},{"STUDYID":"CDISCPILOT01","USUBJID":"01-701-1239","DOMAIN":"ADAE","AESEQ":10,"AETERM":"HORDEOLUM","AELLT":"STYE","AELLTCD":null,"AEDECOD":"HORDEOLUM","AEPTCD":null,"AEHLT":"HLT_0604","AEHLTCD":null,"AEHLGT":"HLGT_0290","AEHLGTCD":null,"AEBODSYS":"INFECTIONS AND INFESTATIONS","AEBDSYCD":null,"AESOC":"INFECTIONS AND INFESTATIONS","AESOCCD":null,"ASTDT":null,"ASTDY":null,"AENDT":null,"AENDY":null,"AESEV":"MILD","AESEVN":1,"AESER":"N","AESERF":"N","AEACN":"","AEACNN":null,"AEREL":"NONE","AEOUT":"NOT RECOVERED/NOT RESOLVED","AESCONG":"N","AESDISAB":"N","AESDTH":"N","AESDTHFL":"N","AESHOSP":"N","AESLIFE":"N","AESOD":"N","TRTEMFL":"Y","DERM_FL":"N","TRT01A":"Xanomeline High Dose","TRT01AN":3,"SAFFL":"Y","ITTFL":"Y","SITEID":"701","AGE":56,"SEX":"M","RACE":"WHITE","ARMCD":"Xan_Hi","TRTSDT":"2014-01-11","TRTEDT":"2014-07-10"},{"STUDYID":"CDISCPILOT01","USUBJID":"01-701-1275","DOMAIN":"ADAE","AESEQ":1,"AETERM":"NAUSEA","AELLT":"NAUSEA","AELLTCD":null,"AEDECOD":"NAUSEA","AEPTCD":null,"AEHLT":"HLT_0742","AEHLTCD":null,"AEHLGT":"HLGT_0326","AEHLGTCD":null,"AEBODSYS":"GASTROINTESTINAL DISORDERS","AEBDSYCD":null,"AESOC":"GASTROINTESTINAL DISORDERS","AESOCCD":null,"ASTDT":"2014-02-13","ASTDY":7,"AENDT":"2014-06-03","AENDY":117,"AESEV":"MILD","AESEVN":1,"AESER":"N","AESERF":"N","AEACN":"","AEACNN":null,"AEREL":"POSSIBLE","AEOUT":"NOT RECOVERED/NOT RESOLVED","AESCONG":"N","AESDISAB":"N","AESDTH":"N","AESDTHFL":"N","AESHOSP":"N","AESLIFE":"N","AESOD":"N","TRTEMFL":"Y","DERM_FL":"N","TRT01A":"Xanomeline High Dose","TRT01AN":3,"SAFFL":"Y","ITTFL":"Y","SITEID":"701","AGE":61,"SEX":"M","RACE":"AMERICAN INDIAN OR ALASKA NATIVE","ARMCD":"Xan_Hi","TRTSDT":"2014-02-07","TRTEDT":"2014-05-31"},{"STUDYID":"CDISCPILOT01","USUBJID":"01-701-1275","DOMAIN":"ADAE","AESEQ":2,"AETERM":"VOMITING","AELLT":"VOMITING","AELLTCD":null,"AEDECOD":"VOMITING","AEPTCD":null,"AEHLT":"HLT_0016","AEHLTCD":null,"AEHLGT":"HLGT_0350","AEHLGTCD":null,"AEBODSYS":"GASTROINTESTINAL DISORDERS","AEBDSYCD":null,"AESOC":"GASTROINTESTINAL DISORDERS","AESOCCD":null,"ASTDT":"2014-02-23","ASTDY":17,"AENDT":"2014-02-23","AENDY":17,"AESEV":"MILD","AESEVN":1,"AESER":"N","AESERF":"N","AEACN":"","AEACNN":null,"AEREL":"POSSIBLE","AEOUT":"RECOVERED/RESOLVED","AESCONG":"N","AESDISAB":"N","AESDTH":"N","AESDTHFL":"N","AESHOSP":"N","AESLIFE":"N","AESOD":"N","TRTEMFL":"Y","DERM_FL":"N","TRT01A":"Xanomeline High Dose","TRT01AN":3,"SAFFL":"Y","ITTFL":"Y","SITEID":"701","AGE":61,"SEX":"M","RACE":"AMERICAN INDIAN OR ALASKA NATIVE","ARMCD":"Xan_Hi","TRTSDT":"2014-02-07","TRTEDT":"2014-05-31"},{"STUDYID":"CDISCPILOT01","USUBJID":"01-701-1275","DOMAIN":"ADAE","AESEQ":3,"AETERM":"ERYTHEMA","AELLT":"ERYTHEMA","AELLTCD":null,"AEDECOD":"ERYTHEMA","AEPTCD":null,"AEHLT":"HLT_0284","AEHLTCD":null,"AEHLGT":"HLGT_0192","AEHLGTCD":null,"AEBODSYS":"SKIN AND SUBCUTANEOUS TISSUE DISORDERS","AEBDSYCD":null,"AESOC":"SKIN AND SUBCUTANEOUS TISSUE DISORDERS","AESOCCD":null,"ASTDT":"2014-02-24","ASTDY":18,"AENDT":"2014-06-12","AENDY":126,"AESEV":"MILD","AESEVN":1,"AESER":"N","AESERF":"N","AEACN":"","AEACNN":null,"AEREL":"POSSIBLE","AEOUT":"NOT RECOVERED/NOT RESOLVED","AESCONG":"N","AESDISAB":"N","AESDTH":"N","AESDTHFL":"N","AESHOSP":"N","AESLIFE":"N","AESOD":"N","TRTEMFL":"Y","DERM_FL":"Y","TRT01A":"Xanomeline High Dose","TRT01AN":3,"SAFFL":"Y","ITTFL":"Y","SITEID":"701","AGE":61,"SEX":"M","RACE":"AMERICAN INDIAN OR ALASKA NATIVE","ARMCD":"Xan_Hi","TRTSDT":"2014-02-07","TRTEDT":"2014-05-31"},{"STUDYID":"CDISCPILOT01","USUBJID":"01-701-1275","DOMAIN":"ADAE","AESEQ":4,"AETERM":"SALIVARY HYPERSECRETION","AELLT":"HYPERSALIVATION","AELLTCD":null,"AEDECOD":"SALIVARY HYPERSECRETION","AEPTCD":null,"AEHLT":"HLT_0374","AEHLTCD":null,"AEHLGT":"HLGT_0488","AEHLGTCD":null,"AEBODSYS":"GASTROINTESTINAL DISORDERS","AEBDSYCD":null,"AESOC":"GASTROINTESTINAL DISORDERS","AESOCCD":null,"ASTDT":"2014-02-24","ASTDY":18,"AENDT":"2014-06-03","AENDY":117,"AESEV":"MILD","AESEVN":1,"AESER":"N","AESERF":"N","AEACN":"","AEACNN":null,"AEREL":"POSSIBLE","AEOUT":"NOT RECOVERED/NOT RESOLVED","AESCONG":"N","AESDISAB":"N","AESDTH":"N","AESDTHFL":"N","AESHOSP":"N","AESLIFE":"N","AESOD":"N","TRTEMFL":"Y","DERM_FL":"N","TRT01A":"Xanomeline High Dose","TRT01AN":3,"SAFFL":"Y","ITTFL":"Y","SITEID":"701","AGE":61,"SEX":"M","RACE":"AMERICAN INDIAN OR ALASKA NATIVE","ARMCD":"Xan_Hi","TRTSDT":"2014-02-07","TRTEDT":"2014-05-31"},{"STUDYID":"CDISCPILOT01","USUBJID":"01-701-1275","DOMAIN":"ADAE","AESEQ":5,"AETERM":"PAROSMIA","AELLT":"STRANGE SMELL SENSATION","AELLTCD":null,"AEDECOD":"PAROSMIA","AEPTCD":null,"AEHLT":"HLT_0258","AEHLTCD":null,"AEHLGT":"HLGT_0471","AEHLGTCD":null,"AEBODSYS":"NERVOUS SYSTEM DISORDERS","AEBDSYCD":null,"AESOC":"NERVOUS SYSTEM DISORDERS","AESOCCD":null,"ASTDT":"2014-02-24","ASTDY":18,"AENDT":"2014-06-03","AENDY":117,"AESEV":"MILD","AESEVN":1,"AESER":"N","AESERF":"N","AEACN":"","AEACNN":null,"AEREL":"POSSIBLE","AEOUT":"NOT RECOVERED/NOT RESOLVED","AESCONG":"N","AESDISAB":"N","AESDTH":"N","AESDTHFL":"N","AESHOSP":"N","AESLIFE":"N","AESOD":"N","TRTEMFL":"Y","DERM_FL":"N","TRT01A":"Xanomeline High Dose","TRT01AN":3,"SAFFL":"Y","ITTFL":"Y","SITEID":"701","AGE":61,"SEX":"M","RACE":"AMERICAN INDIAN OR ALASKA NATIVE","ARMCD":"Xan_Hi","TRTSDT":"2014-02-07","TRTEDT":"2014-05-31"},{"STUDYID":"CDISCPILOT01","USUBJID":"01-701-1275","DOMAIN":"ADAE","AESEQ":6,"AETERM":"PRURITUS","AELLT":"ITCHING","AELLTCD":null,"AEDECOD":"PRURITUS","AEPTCD":null,"AEHLT":"HLT_0778","AEHLTCD":null,"AEHLGT":"HLGT_0695","AEHLGTCD":null,"AEBODSYS":"SKIN AND SUBCUTANEOUS TISSUE DISORDERS","AEBDSYCD":null,"AESOC":"SKIN AND SUBCUTANEOUS TISSUE DISORDERS","AESOCCD":null,"ASTDT":"2014-02-24","ASTDY":18,"AENDT":"2014-06-12","AENDY":126,"AESEV":"MILD","AESEVN":1,"AESER":"N","AESERF":"N","AEACN":"","AEACNN":null,"AEREL":"POSSIBLE","AEOUT":"NOT RECOVERED/NOT RESOLVED","AESCONG":"N","AESDISAB":"N","AESDTH":"N","AESDTHFL":"N","AESHOSP":"N","AESLIFE":"N","AESOD":"N","TRTEMFL":"Y","DERM_FL":"Y","TRT01A":"Xanomeline High Dose","TRT01AN":3,"SAFFL":"Y","ITTFL":"Y","SITEID":"701","AGE":61,"SEX":"M","RACE":"AMERICAN INDIAN OR ALASKA NATIVE","ARMCD":"Xan_Hi","TRTSDT":"2014-02-07","TRTEDT":"2014-05-31"},{"STUDYID":"CDISCPILOT01","USUBJID":"01-701-1275","DOMAIN":"ADAE","AESEQ":7,"AETERM":"COUGH","AELLT":"COUGH","AELLTCD":null,"AEDECOD":"COUGH","AEPTCD":null,"AEHLT":"HLT_0701","AEHLTCD":null,"AEHLGT":"HLGT_0280","AEHLGTCD":null,"AEBODSYS":"RESPIRATORY, THORACIC AND MEDIASTINAL DISORDERS","AEBDSYCD":null,"AESOC":"RESPIRATORY, THORACIC AND MEDIASTINAL DISORDERS","AESOCCD":null,"ASTDT":"2014-03-12","ASTDY":34,"AENDT":"2014-03-27","AENDY":49,"AESEV":"MILD","AESEVN":1,"AESER":"N","AESERF":"N","AEACN":"","AEACNN":null,"AEREL":"NONE","AEOUT":"NOT RECOVERED/NOT RESOLVED","AESCONG":"N","AESDISAB":"N","AESDTH":"N","AESDTHFL":"N","AESHOSP":"N","AESLIFE":"N","AESOD":"N","TRTEMFL":"Y","DERM_FL":"N","TRT01A":"Xanomeline High Dose","TRT01AN":3,"SAFFL":"Y","ITTFL":"Y","SITEID":"701","AGE":61,"SEX":"M","RACE":"AMERICAN INDIAN OR ALASKA NATIVE","ARMCD":"Xan_Hi","TRTSDT":"2014-02-07","TRTEDT":"2014-05-31"},{"STUDYID":"CDISCPILOT01","USUBJID":"01-701-1275","DOMAIN":"ADAE","AESEQ":8,"AETERM":"NASAL CONGESTION","AELLT":"NASAL CONGESTION","AELLTCD":null,"AEDECOD":"NASAL CONGESTION","AEPTCD":null,"AEHLT":"HLT_0118","AEHLTCD":null,"AEHLGT":"HLGT_0549","AEHLGTCD":null,"AEBODSYS":"RESPIRATORY, THORACIC AND MEDIASTINAL DISORDERS","AEBDSYCD":null,"AESOC":"RESPIRATORY, THORACIC AND MEDIASTINAL DISORDERS","AESOCCD":null,"ASTDT":"2014-03-12","ASTDY":34,"AENDT":"2014-03-27","AENDY":49,"AESEV":"MILD","AESEVN":1,"AESER":"N","AESERF":"N","AEACN":"","AEACNN":null,"AEREL":"NONE","AEOUT":"NOT RECOVERED/NOT RESOLVED","AESCONG":"N","AESDISAB":"N","AESDTH":"N","AESDTHFL":"N","AESHOSP":"N","AESLIFE":"N","AESOD":"N","TRTEMFL":"Y","DERM_FL":"N","TRT01A":"Xanomeline High Dose","TRT01AN":3,"SAFFL":"Y","ITTFL":"Y","SITEID":"701","AGE":61,"SEX":"M","RACE":"AMERICAN INDIAN OR ALASKA NATIVE","ARMCD":"Xan_Hi","TRTSDT":"2014-02-07","TRTEDT":"2014-05-31"},{"STUDYID":"CDISCPILOT01","USUBJID":"01-701-1275","DOMAIN":"ADAE","AESEQ":9,"AETERM":"COUGH","AELLT":"COUGH","AELLTCD":null,"AEDECOD":"COUGH","AEPTCD":null,"AEHLT":"HLT_0701","AEHLTCD":null,"AEHLGT":"HLGT_0280","AEHLGTCD":null,"AEBODSYS":"RESPIRATORY, THORACIC AND MEDIASTINAL DISORDERS","AEBDSYCD":null,"AESOC":"RESPIRATORY, THORACIC AND MEDIASTINAL DISORDERS","AESOCCD":null,"ASTDT":"2014-03-12","ASTDY":34,"AENDT":"2014-03-27","AENDY":49,"AESEV":"MILD","AESEVN":1,"AESER":"N","AESERF":"N","AEACN":"","AEACNN":null,"AEREL":"NONE","AEOUT":"RECOVERED/RESOLVED","AESCONG":"N","AESDISAB":"N","AESDTH":"N","AESDTHFL":"N","AESHOSP":"N","AESLIFE":"N","AESOD":"N","TRTEMFL":"Y","DERM_FL":"N","TRT01A":"Xanomeline High Dose","TRT01AN":3,"SAFFL":"Y","ITTFL":"Y","SITEID":"701","AGE":61,"SEX":"M","RACE":"AMERICAN INDIAN OR ALASKA NATIVE","ARMCD":"Xan_Hi","TRTSDT":"2014-02-07","TRTEDT":"2014-05-31"},{"STUDYID":"CDISCPILOT01","USUBJID":"01-701-1275","DOMAIN":"ADAE","AESEQ":10,"AETERM":"NASAL CONGESTION","AELLT":"NASAL CONGESTION","AELLTCD":null,"AEDECOD":"NASAL CONGESTION","AEPTCD":null,"AEHLT":"HLT_0118","AEHLTCD":null,"AEHLGT":"HLGT_0549","AEHLGTCD":null,"AEBODSYS":"RESPIRATORY, THORACIC AND MEDIASTINAL DISORDERS","AEBDSYCD":null,"AESOC":"RESPIRATORY, THORACIC AND MEDIASTINAL DISORDERS","AESOCCD":null,"ASTDT":"2014-03-12","ASTDY":34,"AENDT":"2014-03-27","AENDY":49,"AESEV":"MILD","AESEVN":1,"AESER":"N","AESERF":"N","AEACN":"","AEACNN":null,"AEREL":"NONE","AEOUT":"RECOVERED/RESOLVED","AESCONG":"N","AESDISAB":"N","AESDTH":"N","AESDTHFL":"N","AESHOSP":"N","AESLIFE":"N","AESOD":"N","TRTEMFL":"Y","DERM_FL":"N","TRT01A":"Xanomeline High Dose","TRT01AN":3,"SAFFL":"Y","ITTFL":"Y","SITEID":"701","AGE":61,"SEX":"M","RACE":"AMERICAN INDIAN OR ALASKA NATIVE","ARMCD":"Xan_Hi","TRTSDT":"2014-02-07","TRTEDT":"2014-05-31"},{"STUDYID":"CDISCPILOT01","USUBJID":"01-701-1275","DOMAIN":"ADAE","AESEQ":11,"AETERM":"NAUSEA","AELLT":"NAUSEA","AELLTCD":null,"AEDECOD":"NAUSEA","AEPTCD":null,"AEHLT":"HLT_0742","AEHLTCD":null,"AEHLGT":"HLGT_0326","AEHLGTCD":null,"AEBODSYS":"GASTROINTESTINAL DISORDERS","AEBDSYCD":null,"AESOC":"GASTROINTESTINAL DISORDERS","AESOCCD":null,"ASTDT":"2014-02-13","ASTDY":7,"AENDT":"2014-06-03","AENDY":117,"AESEV":"MILD","AESEVN":1,"AESER":"N","AESERF":"N","AEACN":"","AEACNN":null,"AEREL":"POSSIBLE","AEOUT":"RECOVERED/RESOLVED","AESCONG":"N","AESDISAB":"N","AESDTH":"N","AESDTHFL":"N","AESHOSP":"N","AESLIFE":"N","AESOD":"N","TRTEMFL":"Y","DERM_FL":"N","TRT01A":"Xanomeline High Dose","TRT01AN":3,"SAFFL":"Y","ITTFL":"Y","SITEID":"701","AGE":61,"SEX":"M","RACE":"AMERICAN INDIAN OR ALASKA NATIVE","ARMCD":"Xan_Hi","TRTSDT":"2014-02-07","TRTEDT":"2014-05-31"},{"STUDYID":"CDISCPILOT01","USUBJID":"01-701-1275","DOMAIN":"ADAE","AESEQ":12,"AETERM":"ERYTHEMA","AELLT":"ERYTHEMA","AELLTCD":null,"AEDECOD":"ERYTHEMA","AEPTCD":null,"AEHLT":"HLT_0284","AEHLTCD":null,"AEHLGT":"HLGT_0192","AEHLGTCD":null,"AEBODSYS":"SKIN AND SUBCUTANEOUS TISSUE DISORDERS","AEBDSYCD":null,"AESOC":"SKIN AND SUBCUTANEOUS TISSUE DISORDERS","AESOCCD":null,"ASTDT":"2014-02-24","ASTDY":18,"AENDT":"2014-06-12","AENDY":126,"AESEV":"MILD","AESEVN":1,"AESER":"N","AESERF":"N","AEACN":"","AEACNN":null,"AEREL":"POSSIBLE","AEOUT":"RECOVERED/RESOLVED","AESCONG":"N","AESDISAB":"N","AESDTH":"N","AESDTHFL":"N","AESHOSP":"N","AESLIFE":"N","AESOD":"N","TRTEMFL":"Y","DERM_FL":"Y","TRT01A":"Xanomeline High Dose","TRT01AN":3,"SAFFL":"Y","ITTFL":"Y","SITEID":"701","AGE":61,"SEX":"M","RACE":"AMERICAN INDIAN OR ALASKA NATIVE","ARMCD":"Xan_Hi","TRTSDT":"2014-02-07","TRTEDT":"2014-05-31"},{"STUDYID":"CDISCPILOT01","USUBJID":"01-701-1275","DOMAIN":"ADAE","AESEQ":13,"AETERM":"SALIVARY HYPERSECRETION","AELLT":"HYPERSALIVATION","AELLTCD":null,"AEDECOD":"SALIVARY HYPERSECRETION","AEPTCD":null,"AEHLT":"HLT_0374","AEHLTCD":null,"AEHLGT":"HLGT_0488","AEHLGTCD":null,"AEBODSYS":"GASTROINTESTINAL DISORDERS","AEBDSYCD":null,"AESOC":"GASTROINTESTINAL DISORDERS","AESOCCD":null,"ASTDT":"2014-02-24","ASTDY":18,"AENDT":"2014-06-03","AENDY":117,"AESEV":"MILD","AESEVN":1,"AESER":"N","AESERF":"N","AEACN":"","AEACNN":null,"AEREL":"POSSIBLE","AEOUT":"RECOVERED/RESOLVED","AESCONG":"N","AESDISAB":"N","AESDTH":"N","AESDTHFL":"N","AESHOSP":"N","AESLIFE":"N","AESOD":"N","TRTEMFL":"Y","DERM_FL":"N","TRT01A":"Xanomeline High Dose","TRT01AN":3,"SAFFL":"Y","ITTFL":"Y","SITEID":"701","AGE":61,"SEX":"M","RACE":"AMERICAN INDIAN OR ALASKA NATIVE","ARMCD":"Xan_Hi","TRTSDT":"2014-02-07","TRTEDT":"2014-05-31"},{"STUDYID":"CDISCPILOT01","USUBJID":"01-701-1275","DOMAIN":"ADAE","AESEQ":14,"AETERM":"PAROSMIA","AELLT":"STRANGE SMELL SENSATION","AELLTCD":null,"AEDECOD":"PAROSMIA","AEPTCD":null,"AEHLT":"HLT_0258","AEHLTCD":null,"AEHLGT":"HLGT_0471","AEHLGTCD":null,"AEBODSYS":"NERVOUS SYSTEM DISORDERS","AEBDSYCD":null,"AESOC":"NERVOUS SYSTEM DISORDERS","AESOCCD":null,"ASTDT":"2014-02-24","ASTDY":18,"AENDT":"2014-06-03","AENDY":117,"AESEV":"MILD","AESEVN":1,"AESER":"N","AESERF":"N","AEACN":"","AEACNN":null,"AEREL":"POSSIBLE","AEOUT":"RECOVERED/RESOLVED","AESCONG":"N","AESDISAB":"N","AESDTH":"N","AESDTHFL":"N","AESHOSP":"N","AESLIFE":"N","AESOD":"N","TRTEMFL":"Y","DERM_FL":"N","TRT01A":"Xanomeline High Dose","TRT01AN":3,"SAFFL":"Y","ITTFL":"Y","SITEID":"701","AGE":61,"SEX":"M","RACE":"AMERICAN INDIAN OR ALASKA NATIVE","ARMCD":"Xan_Hi","TRTSDT":"2014-02-07","TRTEDT":"2014-05-31"},{"STUDYID":"CDISCPILOT01","USUBJID":"01-701-1275","DOMAIN":"ADAE","AESEQ":15,"AETERM":"PRURITUS","AELLT":"ITCHING","AELLTCD":null,"AEDECOD":"PRURITUS","AEPTCD":null,"AEHLT":"HLT_0778","AEHLTCD":null,"AEHLGT":"HLGT_0695","AEHLGTCD":null,"AEBODSYS":"SKIN AND SUBCUTANEOUS TISSUE DISORDERS","AEBDSYCD":null,"AESOC":"SKIN AND SUBCUTANEOUS TISSUE DISORDERS","AESOCCD":null,"ASTDT":"2014-02-24","ASTDY":18,"AENDT":"2014-06-12","AENDY":126,"AESEV":"MILD","AESEVN":1,"AESER":"N","AESERF":"N","AEACN":"","AEACNN":null,"AEREL":"POSSIBLE","AEOUT":"RECOVERED/RESOLVED","AESCONG":"N","AESDISAB":"N","AESDTH":"N","AESDTHFL":"N","AESHOSP":"N","AESLIFE":"N","AESOD":"N","TRTEMFL":"Y","DERM_FL":"Y","TRT01A":"Xanomeline High Dose","TRT01AN":3,"SAFFL":"Y","ITTFL":"Y","SITEID":"701","AGE":61,"SEX":"M","RACE":"AMERICAN INDIAN OR ALASKA NATIVE","ARMCD":"Xan_Hi","TRTSDT":"2014-02-07","TRTEDT":"2014-05-31"},{"STUDYID":"CDISCPILOT01","USUBJID":"01-701-1287","DOMAIN":"ADAE","AESEQ":1,"AETERM":"SALIVARY HYPERSECRETION","AELLT":"INCREASED SALIVATION","AELLTCD":null,"AEDECOD":"SALIVARY HYPERSECRETION","AEPTCD":null,"AEHLT":"HLT_0374","AEHLTCD":null,"AEHLGT":"HLGT_0488","AEHLGTCD":null,"AEBODSYS":"GASTROINTESTINAL DISORDERS","AEBDSYCD":null,"AESOC":"GASTROINTESTINAL DISORDERS","AESOCCD":null,"ASTDT":"2014-01-26","ASTDY":2,"AENDT":null,"AENDY":null,"AESEV":"MILD","AESEVN":1,"AESER":"N","AESERF":"N","AEACN":"","AEACNN":null,"AEREL":"NONE","AEOUT":"NOT RECOVERED/NOT RESOLVED","AESCONG":"N","AESDISAB":"N","AESDTH":"N","AESDTHFL":"N","AESHOSP":"N","AESLIFE":"N","AESOD":"N","TRTEMFL":"Y","DERM_FL":"N","TRT01A":"Xanomeline High Dose","TRT01AN":3,"SAFFL":"Y","ITTFL":"Y","SITEID":"701","AGE":56,"SEX":"F","RACE":"WHITE","ARMCD":"Xan_Hi","TRTSDT":"2014-01-25","TRTEDT":"2014-07-26"},{"STUDYID":"CDISCPILOT01","USUBJID":"01-701-1287","DOMAIN":"ADAE","AESEQ":2,"AETERM":"APPLICATION SITE PRURITUS","AELLT":"APPLICATION SITE ITCHING","AELLTCD":null,"AEDECOD":"APPLICATION SITE PRURITUS","AEPTCD":null,"AEHLT":"HLT_0317","AEHLTCD":null,"AEHLGT":"HLGT_0338","AEHLGTCD":null,"AEBODSYS":"GENERAL DISORDERS AND ADMINISTRATION SITE CONDITIONS","AEBDSYCD":null,"AESOC":"GENERAL DISORDERS AND ADMINISTRATION SITE CONDITIONS","AESOCCD":null,"ASTDT":"2014-02-22","ASTDY":29,"AENDT":null,"AENDY":null,"AESEV":"MILD","AESEVN":1,"AESER":"N","AESERF":"N","AEACN":"","AEACNN":null,"AEREL":"POSSIBLE","AEOUT":"NOT RECOVERED/NOT RESOLVED","AESCONG":"N","AESDISAB":"N","AESDTH":"N","AESDTHFL":"N","AESHOSP":"N","AESLIFE":"N","AESOD":"N","TRTEMFL":"Y","DERM_FL":"N","TRT01A":"Xanomeline High Dose","TRT01AN":3,"SAFFL":"Y","ITTFL":"Y","SITEID":"701","AGE":56,"SEX":"F","RACE":"WHITE","ARMCD":"Xan_Hi","TRTSDT":"2014-01-25","TRTEDT":"2014-07-26"},{"STUDYID":"CDISCPILOT01","USUBJID":"01-701-1287","DOMAIN":"ADAE","AESEQ":3,"AETERM":"APPLICATION SITE ERYTHEMA","AELLT":"APPLICATION SITE REDNESS","AELLTCD":null,"AEDECOD":"APPLICATION SITE ERYTHEMA","AEPTCD":null,"AEHLT":"HLT_0617","AEHLTCD":null,"AEHLGT":"HLGT_0152","AEHLGTCD":null,"AEBODSYS":"GENERAL DISORDERS AND ADMINISTRATION SITE CONDITIONS","AEBDSYCD":null,"AESOC":"GENERAL DISORDERS AND ADMINISTRATION SITE CONDITIONS","AESOCCD":null,"ASTDT":"2014-03-09","ASTDY":44,"AENDT":null,"AENDY":null,"AESEV":"MILD","AESEVN":1,"AESER":"N","AESERF":"N","AEACN":"","AEACNN":null,"AEREL":"PROBABLE","AEOUT":"NOT RECOVERED/NOT RESOLVED","AESCONG":"N","AESDISAB":"N","AESDTH":"N","AESDTHFL":"N","AESHOSP":"N","AESLIFE":"N","AESOD":"N","TRTEMFL":"Y","DERM_FL":"N","TRT01A":"Xanomeline High Dose","TRT01AN":3,"SAFFL":"Y","ITTFL":"Y","SITEID":"701","AGE":56,"SEX":"F","RACE":"WHITE","ARMCD":"Xan_Hi","TRTSDT":"2014-01-25","TRTEDT":"2014-07-26"},{"STUDYID":"CDISCPILOT01","USUBJID":"01-701-1287","DOMAIN":"ADAE","AESEQ":4,"AETERM":"RHINORRHOEA","AELLT":"RUNNY NOSE","AELLTCD":null,"AEDECOD":"RHINORRHOEA","AEPTCD":null,"AEHLT":"HLT_0635","AEHLTCD":null,"AEHLGT":"HLGT_0460","AEHLGTCD":null,"AEBODSYS":"RESPIRATORY, THORACIC AND MEDIASTINAL DISORDERS","AEBDSYCD":null,"AESOC":"RESPIRATORY, THORACIC AND MEDIASTINAL DISORDERS","AESOCCD":null,"ASTDT":"2014-07-09","ASTDY":166,"AENDT":"2014-07-12","AENDY":169,"AESEV":"MILD","AESEVN":1,"AESER":"N","AESERF":"N","AEACN":"","AEACNN":null,"AEREL":"NONE","AEOUT":"NOT RECOVERED/NOT RESOLVED","AESCONG":"N","AESDISAB":"N","AESDTH":"N","AESDTHFL":"N","AESHOSP":"N","AESLIFE":"N","AESOD":"N","TRTEMFL":"Y","DERM_FL":"N","TRT01A":"Xanomeline High Dose","TRT01AN":3,"SAFFL":"Y","ITTFL":"Y","SITEID":"701","AGE":56,"SEX":"F","RACE":"WHITE","ARMCD":"Xan_Hi","TRTSDT":"2014-01-25","TRTEDT":"2014-07-26"},{"STUDYID":"CDISCPILOT01","USUBJID":"01-701-1287","DOMAIN":"ADAE","AESEQ":5,"AETERM":"RHINORRHOEA","AELLT":"RUNNY NOSE","AELLTCD":null,"AEDECOD":"RHINORRHOEA","AEPTCD":null,"AEHLT":"HLT_0635","AEHLTCD":null,"AEHLGT":"HLGT_0460","AEHLGTCD":null,"AEBODSYS":"RESPIRATORY, THORACIC AND MEDIASTINAL DISORDERS","AEBDSYCD":null,"AESOC":"RESPIRATORY, THORACIC AND MEDIASTINAL DISORDERS","AESOCCD":null,"ASTDT":"2014-07-09","ASTDY":166,"AENDT":"2014-07-12","AENDY":169,"AESEV":"MILD","AESEVN":1,"AESER":"N","AESERF":"N","AEACN":"","AEACNN":null,"AEREL":"NONE","AEOUT":"RECOVERED/RESOLVED","AESCONG":"N","AESDISAB":"N","AESDTH":"N","AESDTHFL":"N","AESHOSP":"N","AESLIFE":"N","AESOD":"N","TRTEMFL":"Y","DERM_FL":"N","TRT01A":"Xanomeline High Dose","TRT01AN":3,"SAFFL":"Y","ITTFL":"Y","SITEID":"701","AGE":56,"SEX":"F","RACE":"WHITE","ARMCD":"Xan_Hi","TRTSDT":"2014-01-25","TRTEDT":"2014-07-26"},{"STUDYID":"CDISCPILOT01","USUBJID":"01-701-1294","DOMAIN":"ADAE","AESEQ":1,"AETERM":"APPLICATION SITE PRURITUS","AELLT":"APPLICATION SITE ITCHING","AELLTCD":null,"AEDECOD":"APPLICATION SITE PRURITUS","AEPTCD":null,"AEHLT":"HLT_0317","AEHLTCD":null,"AEHLGT":"HLGT_0338","AEHLGTCD":null,"AEBODSYS":"GENERAL DISORDERS AND ADMINISTRATION SITE CONDITIONS","AEBDSYCD":null,"AESOC":"GENERAL DISORDERS AND ADMINISTRATION SITE CONDITIONS","AESOCCD":null,"ASTDT":"2013-03-22","ASTDY":-2,"AENDT":"2013-03-23","AENDY":-1,"AESEV":"MODERATE","AESEVN":2,"AESER":"N","AESERF":"N","AEACN":"","AEACNN":null,"AEREL":"NONE","AEOUT":"RECOVERED/RESOLVED","AESCONG":"N","AESDISAB":"N","AESDTH":"N","AESDTHFL":"N","AESHOSP":"N","AESLIFE":"N","AESOD":"N","TRTEMFL":"N","DERM_FL":"N","TRT01A":"Xanomeline Low Dose","TRT01AN":2,"SAFFL":"Y","ITTFL":"Y","SITEID":"701","AGE":67,"SEX":"M","RACE":"WHITE","ARMCD":"Xan_Lo","TRTSDT":"2013-03-24","TRTEDT":"2013-06-14"},{"STUDYID":"CDISCPILOT01","USUBJID":"01-701-1294","DOMAIN":"ADAE","AESEQ":2,"AETERM":"APPLICATION SITE PRURITUS","AELLT":"APPLICATION SITE ITCHING","AELLTCD":null,"AEDECOD":"APPLICATION SITE PRURITUS","AEPTCD":null,"AEHLT":"HLT_0317","AEHLTCD":null,"AEHLGT":"HLGT_0338","AEHLGTCD":null,"AEBODSYS":"GENERAL DISORDERS AND ADMINISTRATION SITE CONDITIONS","AEBDSYCD":null,"AESOC":"GENERAL DISORDERS AND ADMINISTRATION SITE CONDITIONS","AESOCCD":null,"ASTDT":"2013-05-19","ASTDY":57,"AENDT":null,"AENDY":null,"AESEV":"MILD","AESEVN":1,"AESER":"N","AESERF":"N","AEACN":"","AEACNN":null,"AEREL":"POSSIBLE","AEOUT":"NOT RECOVERED/NOT RESOLVED","AESCONG":"N","AESDISAB":"N","AESDTH":"N","AESDTHFL":"N","AESHOSP":"N","AESLIFE":"N","AESOD":"N","TRTEMFL":"Y","DERM_FL":"N","TRT01A":"Xanomeline Low Dose","TRT01AN":2,"SAFFL":"Y","ITTFL":"Y","SITEID":"701","AGE":67,"SEX":"M","RACE":"WHITE","ARMCD":"Xan_Lo","TRTSDT":"2013-03-24","TRTEDT":"2013-06-14"},{"STUDYID":"CDISCPILOT01","USUBJID":"01-701-1294","DOMAIN":"ADAE","AESEQ":3,"AETERM":"APPLICATION SITE ERYTHEMA","AELLT":"APPLICATION SITE REDNESS","AELLTCD":null,"AEDECOD":"APPLICATION SITE ERYTHEMA","AEPTCD":null,"AEHLT":"HLT_0617","AEHLTCD":null,"AEHLGT":"HLGT_0152","AEHLGTCD":null,"AEBODSYS":"GENERAL DISORDERS AND ADMINISTRATION SITE CONDITIONS","AEBDSYCD":null,"AESOC":"GENERAL DISORDERS AND ADMINISTRATION SITE CONDITIONS","AESOCCD":null,"ASTDT":"2013-05-19","ASTDY":57,"AENDT":null,"AENDY":null,"AESEV":"MILD","AESEVN":1,"AESER":"N","AESERF":"N","AEACN":"","AEACNN":null,"AEREL":"PROBABLE","AEOUT":"NOT RECOVERED/NOT RESOLVED","AESCONG":"N","AESDISAB":"N","AESDTH":"N","AESDTHFL":"N","AESHOSP":"N","AESLIFE":"N","AESOD":"N","TRTEMFL":"Y","DERM_FL":"N","TRT01A":"Xanomeline Low Dose","TRT01AN":2,"SAFFL":"Y","ITTFL":"Y","SITEID":"701","AGE":67,"SEX":"M","RACE":"WHITE","ARMCD":"Xan_Lo","TRTSDT":"2013-03-24","TRTEDT":"2013-06-14"},{"STUDYID":"CDISCPILOT01","USUBJID":"01-701-1294","DOMAIN":"ADAE","AESEQ":4,"AETERM":"APPLICATION SITE PRURITUS","AELLT":"APPLICATION SITE ITCHING","AELLTCD":null,"AEDECOD":"APPLICATION SITE PRURITUS","AEPTCD":null,"AEHLT":"HLT_0317","AEHLTCD":null,"AEHLGT":"HLGT_0338","AEHLGTCD":null,"AEBODSYS":"GENERAL DISORDERS AND ADMINISTRATION SITE CONDITIONS","AEBDSYCD":null,"AESOC":"GENERAL DISORDERS AND ADMINISTRATION SITE CONDITIONS","AESOCCD":null,"ASTDT":"2013-05-19","ASTDY":57,"AENDT":null,"AENDY":null,"AESEV":"MODERATE","AESEVN":2,"AESER":"N","AESERF":"N","AEACN":"","AEACNN":null,"AEREL":"POSSIBLE","AEOUT":"NOT RECOVERED/NOT RESOLVED","AESCONG":"N","AESDISAB":"N","AESDTH":"N","AESDTHFL":"N","AESHOSP":"N","AESLIFE":"N","AESOD":"N","TRTEMFL":"Y","DERM_FL":"N","TRT01A":"Xanomeline Low Dose","TRT01AN":2,"SAFFL":"Y","ITTFL":"Y","SITEID":"701","AGE":67,"SEX":"M","RACE":"WHITE","ARMCD":"Xan_Lo","TRTSDT":"2013-03-24","TRTEDT":"2013-06-14"},{"STUDYID":"CDISCPILOT01","USUBJID":"01-701-1294","DOMAIN":"ADAE","AESEQ":5,"AETERM":"APPLICATION SITE ERYTHEMA","AELLT":"APPLICATION SITE REDNESS","AELLTCD":null,"AEDECOD":"APPLICATION SITE ERYTHEMA","AEPTCD":null,"AEHLT":"HLT_0617","AEHLTCD":null,"AEHLGT":"HLGT_0152","AEHLGTCD":null,"AEBODSYS":"GENERAL DISORDERS AND ADMINISTRATION SITE CONDITIONS","AEBDSYCD":null,"AESOC":"GENERAL DISORDERS AND ADMINISTRATION SITE CONDITIONS","AESOCCD":null,"ASTDT":"2013-05-19","ASTDY":57,"AENDT":null,"AENDY":null,"AESEV":"MODERATE","AESEVN":2,"AESER":"N","AESERF":"N","AEACN":"","AEACNN":null,"AEREL":"PROBABLE","AEOUT":"NOT RECOVERED/NOT RESOLVED","AESCONG":"N","AESDISAB":"N","AESDTH":"N","AESDTHFL":"N","AESHOSP":"N","AESLIFE":"N","AESOD":"N","TRTEMFL":"Y","DERM_FL":"N","TRT01A":"Xanomeline Low Dose","TRT01AN":2,"SAFFL":"Y","ITTFL":"Y","SITEID":"701","AGE":67,"SEX":"M","RACE":"WHITE","ARMCD":"Xan_Lo","TRTSDT":"2013-03-24","TRTEDT":"2013-06-14"},{"STUDYID":"CDISCPILOT01","USUBJID":"01-701-1294","DOMAIN":"ADAE","AESEQ":6,"AETERM":"RASH ERYTHEMATOUS","AELLT":"ERYTHEMATOUS RASH","AELLTCD":null,"AEDECOD":"RASH ERYTHEMATOUS","AEPTCD":null,"AEHLT":"HLT_0336","AEHLTCD":null,"AEHLGT":"HLGT_0701","AEHLGTCD":null,"AEBODSYS":"SKIN AND SUBCUTANEOUS TISSUE DISORDERS","AEBDSYCD":null,"AESOC":"SKIN AND SUBCUTANEOUS TISSUE DISORDERS","AESOCCD":null,"ASTDT":"2013-06-10","ASTDY":79,"AENDT":null,"AENDY":null,"AESEV":"MODERATE","AESEVN":2,"AESER":"N","AESERF":"N","AEACN":"","AEACNN":null,"AEREL":"PROBABLE","AEOUT":"NOT RECOVERED/NOT RESOLVED","AESCONG":"N","AESDISAB":"N","AESDTH":"N","AESDTHFL":"N","AESHOSP":"N","AESLIFE":"N","AESOD":"N","TRTEMFL":"Y","DERM_FL":"Y","TRT01A":"Xanomeline Low Dose","TRT01AN":2,"SAFFL":"Y","ITTFL":"Y","SITEID":"701","AGE":67,"SEX":"M","RACE":"WHITE","ARMCD":"Xan_Lo","TRTSDT":"2013-03-24","TRTEDT":"2013-06-14"},{"STUDYID":"CDISCPILOT01","USUBJID":"01-701-1302","DOMAIN":"ADAE","AESEQ":1,"AETERM":"APPLICATION SITE PERSPIRATION","AELLT":"APPLICATION SITE PERSPIRATION","AELLTCD":null,"AEDECOD":"APPLICATION SITE PERSPIRATION","AEPTCD":null,"AEHLT":"HLT_0283","AEHLTCD":null,"AEHLGT":"HLGT_0403","AEHLGTCD":null,"AEBODSYS":"GENERAL DISORDERS AND ADMINISTRATION SITE CONDITIONS","AEBDSYCD":null,"AESOC":"GENERAL DISORDERS AND ADMINISTRATION SITE CONDITIONS","AESOCCD":null,"ASTDT":"2013-08-30","ASTDY":2,"AENDT":null,"AENDY":null,"AESEV":"MILD","AESEVN":1,"AESER":"N","AESERF":"N","AEACN":"","AEACNN":null,"AEREL":"POSSIBLE","AEOUT":"NOT RECOVERED/NOT RESOLVED","AESCONG":"N","AESDISAB":"N","AESDTH":"N","AESDTHFL":"N","AESHOSP":"N","AESLIFE":"N","AESOD":"N","TRTEMFL":"Y","DERM_FL":"N","TRT01A":"Xanomeline High Dose","TRT01AN":3,"SAFFL":"Y","ITTFL":"Y","SITEID":"701","AGE":61,"SEX":"M","RACE":"WHITE","ARMCD":"Xan_Hi","TRTSDT":"2013-08-29","TRTEDT":"2013-11-05"},{"STUDYID":"CDISCPILOT01","USUBJID":"01-701-1302","DOMAIN":"ADAE","AESEQ":2,"AETERM":"HYPERHIDROSIS","AELLT":"PERSPIRATION EXCESSIVE","AELLTCD":null,"AEDECOD":"HYPERHIDROSIS","AEPTCD":null,"AEHLT":"HLT_0587","AEHLTCD":null,"AEHLGT":"HLGT_0005","AEHLGTCD":null,"AEBODSYS":"SKIN AND SUBCUTANEOUS TISSUE DISORDERS","AEBDSYCD":null,"AESOC":"SKIN AND SUBCUTANEOUS TISSUE DISORDERS","AESOCCD":null,"ASTDT":"2013-08-30","ASTDY":2,"AENDT":null,"AENDY":null,"AESEV":"MILD","AESEVN":1,"AESER":"N","AESERF":"N","AEACN":"","AEACNN":null,"AEREL":"POSSIBLE","AEOUT":"NOT RECOVERED/NOT RESOLVED","AESCONG":"N","AESDISAB":"N","AESDTH":"N","AESDTHFL":"N","AESHOSP":"N","AESLIFE":"N","AESOD":"N","TRTEMFL":"Y","DERM_FL":"Y","TRT01A":"Xanomeline High Dose","TRT01AN":3,"SAFFL":"Y","ITTFL":"Y","SITEID":"701","AGE":61,"SEX":"M","RACE":"WHITE","ARMCD":"Xan_Hi","TRTSDT":"2013-08-29","TRTEDT":"2013-11-05"},{"STUDYID":"CDISCPILOT01","USUBJID":"01-701-1302","DOMAIN":"ADAE","AESEQ":3,"AETERM":"STOMACH DISCOMFORT","AELLT":"STOMACH UPSET","AELLTCD":null,"AEDECOD":"STOMACH DISCOMFORT","AEPTCD":null,"AEHLT":"HLT_0065","AEHLTCD":null,"AEHLGT":"HLGT_0183","AEHLGTCD":null,"AEBODSYS":"GASTROINTESTINAL DISORDERS","AEBDSYCD":null,"AESOC":"GASTROINTESTINAL DISORDERS","AESOCCD":null,"ASTDT":"2013-08-30","ASTDY":2,"AENDT":null,"AENDY":null,"AESEV":"MILD","AESEVN":1,"AESER":"N","AESERF":"N","AEACN":"","AEACNN":null,"AEREL":"POSSIBLE","AEOUT":"NOT RECOVERED/NOT RESOLVED","AESCONG":"N","AESDISAB":"N","AESDTH":"N","AESDTHFL":"N","AESHOSP":"N","AESLIFE":"N","AESOD":"N","TRTEMFL":"Y","DERM_FL":"N","TRT01A":"Xanomeline High Dose","TRT01AN":3,"SAFFL":"Y","ITTFL":"Y","SITEID":"701","AGE":61,"SEX":"M","RACE":"WHITE","ARMCD":"Xan_Hi","TRTSDT":"2013-08-29","TRTEDT":"2013-11-05"},{"STUDYID":"CDISCPILOT01","USUBJID":"01-701-1302","DOMAIN":"ADAE","AESEQ":4,"AETERM":"PAIN","AELLT":"STINGING","AELLTCD":null,"AEDECOD":"PAIN","AEPTCD":null,"AEHLT":"HLT_0314","AEHLTCD":null,"AEHLGT":"HLGT_0478","AEHLGTCD":null,"AEBODSYS":"GENERAL DISORDERS AND ADMINISTRATION SITE CONDITIONS","AEBDSYCD":null,"AESOC":"GENERAL DISORDERS AND ADMINISTRATION SITE CONDITIONS","AESOCCD":null,"ASTDT":"2013-08-31","ASTDY":3,"AENDT":null,"AENDY":null,"AESEV":"MILD","AESEVN":1,"AESER":"N","AESERF":"N","AEACN":"","AEACNN":null,"AEREL":"POSSIBLE","AEOUT":"NOT RECOVERED/NOT RESOLVED","AESCONG":"N","AESDISAB":"N","AESDTH":"N","AESDTHFL":"N","AESHOSP":"N","AESLIFE":"N","AESOD":"N","TRTEMFL":"Y","DERM_FL":"N","TRT01A":"Xanomeline High Dose","TRT01AN":3,"SAFFL":"Y","ITTFL":"Y","SITEID":"701","AGE":61,"SEX":"M","RACE":"WHITE","ARMCD":"Xan_Hi","TRTSDT":"2013-08-29","TRTEDT":"2013-11-05"},{"STUDYID":"CDISCPILOT01","USUBJID":"01-701-1302","DOMAIN":"ADAE","AESEQ":5,"AETERM":"NASAL CONGESTION","AELLT":"NASAL CONGESTION","AELLTCD":null,"AEDECOD":"NASAL CONGESTION","AEPTCD":null,"AEHLT":"HLT_0118","AEHLTCD":null,"AEHLGT":"HLGT_0549","AEHLGTCD":null,"AEBODSYS":"RESPIRATORY, THORACIC AND MEDIASTINAL DISORDERS","AEBDSYCD":null,"AESOC":"RESPIRATORY, THORACIC AND MEDIASTINAL DISORDERS","AESOCCD":null,"ASTDT":"2013-09-01","ASTDY":4,"AENDT":null,"AENDY":null,"AESEV":"MILD","AESEVN":1,"AESER":"N","AESERF":"N","AEACN":"","AEACNN":null,"AEREL":"NONE","AEOUT":"NOT RECOVERED/NOT RESOLVED","AESCONG":"N","AESDISAB":"N","AESDTH":"N","AESDTHFL":"N","AESHOSP":"N","AESLIFE":"N","AESOD":"N","TRTEMFL":"Y","DERM_FL":"N","TRT01A":"Xanomeline High Dose","TRT01AN":3,"SAFFL":"Y","ITTFL":"Y","SITEID":"701","AGE":61,"SEX":"M","RACE":"WHITE","ARMCD":"Xan_Hi","TRTSDT":"2013-08-29","TRTEDT":"2013-11-05"},{"STUDYID":"CDISCPILOT01","USUBJID":"01-701-1302","DOMAIN":"ADAE","AESEQ":6,"AETERM":"PHARYNGOLARYNGEAL PAIN","AELLT":"SORE THROAT","AELLTCD":null,"AEDECOD":"PHARYNGOLARYNGEAL PAIN","AEPTCD":null,"AEHLT":"HLT_0130","AEHLTCD":null,"AEHLGT":"HLGT_0402","AEHLGTCD":null,"AEBODSYS":"RESPIRATORY, THORACIC AND MEDIASTINAL DISORDERS","AEBDSYCD":null,"AESOC":"RESPIRATORY, THORACIC AND MEDIASTINAL DISORDERS","AESOCCD":null,"ASTDT":"2013-09-02","ASTDY":5,"AENDT":null,"AENDY":null,"AESEV":"MILD","AESEVN":1,"AESER":"N","AESERF":"N","AEACN":"","AEACNN":null,"AEREL":"NONE","AEOUT":"NOT RECOVERED/NOT RESOLVED","AESCONG":"N","AESDISAB":"N","AESDTH":"N","AESDTHFL":"N","AESHOSP":"N","AESLIFE":"N","AESOD":"N","TRTEMFL":"Y","DERM_FL":"N","TRT01A":"Xanomeline High Dose","TRT01AN":3,"SAFFL":"Y","ITTFL":"Y","SITEID":"701","AGE":61,"SEX":"M","RACE":"WHITE","ARMCD":"Xan_Hi","TRTSDT":"2013-08-29","TRTEDT":"2013-11-05"},{"STUDYID":"CDISCPILOT01","USUBJID":"01-701-1302","DOMAIN":"ADAE","AESEQ":7,"AETERM":"PRODUCTIVE COUGH","AELLT":"PRODUCTIVE COUGH","AELLTCD":null,"AEDECOD":"PRODUCTIVE COUGH","AEPTCD":null,"AEHLT":"HLT_0545","AEHLTCD":null,"AEHLGT":"HLGT_0681","AEHLGTCD":null,"AEBODSYS":"RESPIRATORY, THORACIC AND MEDIASTINAL DISORDERS","AEBDSYCD":null,"AESOC":"RESPIRATORY, THORACIC AND MEDIASTINAL DISORDERS","AESOCCD":null,"ASTDT":"2013-09-02","ASTDY":5,"AENDT":null,"AENDY":null,"AESEV":"MILD","AESEVN":1,"AESER":"N","AESERF":"N","AEACN":"","AEACNN":null,"AEREL":"NONE","AEOUT":"NOT RECOVERED/NOT RESOLVED","AESCONG":"N","AESDISAB":"N","AESDTH":"N","AESDTHFL":"N","AESHOSP":"N","AESLIFE":"N","AESOD":"N","TRTEMFL":"Y","DERM_FL":"N","TRT01A":"Xanomeline High Dose","TRT01AN":3,"SAFFL":"Y","ITTFL":"Y","SITEID":"701","AGE":61,"SEX":"M","RACE":"WHITE","ARMCD":"Xan_Hi","TRTSDT":"2013-08-29","TRTEDT":"2013-11-05"},{"STUDYID":"CDISCPILOT01","USUBJID":"01-701-1302","DOMAIN":"ADAE","AESEQ":8,"AETERM":"MALAISE","AELLT":"MALAISE","AELLTCD":null,"AEDECOD":"MALAISE","AEPTCD":null,"AEHLT":"HLT_0456","AEHLTCD":null,"AEHLGT":"HLGT_0178","AEHLGTCD":null,"AEBODSYS":"GENERAL DISORDERS AND ADMINISTRATION SITE CONDITIONS","AEBDSYCD":null,"AESOC":"GENERAL DISORDERS AND ADMINISTRATION SITE CONDITIONS","AESOCCD":null,"ASTDT":"2013-09-02","ASTDY":5,"AENDT":null,"AENDY":null,"AESEV":"MILD","AESEVN":1,"AESER":"N","AESERF":"N","AEACN":"","AEACNN":null,"AEREL":"REMOTE","AEOUT":"NOT RECOVERED/NOT RESOLVED","AESCONG":"N","AESDISAB":"N","AESDTH":"N","AESDTHFL":"N","AESHOSP":"N","AESLIFE":"N","AESOD":"N","TRTEMFL":"Y","DERM_FL":"N","TRT01A":"Xanomeline High Dose","TRT01AN":3,"SAFFL":"Y","ITTFL":"Y","SITEID":"701","AGE":61,"SEX":"M","RACE":"WHITE","ARMCD":"Xan_Hi","TRTSDT":"2013-08-29","TRTEDT":"2013-11-05"},{"STUDYID":"CDISCPILOT01","USUBJID":"01-701-1302","DOMAIN":"ADAE","AESEQ":9,"AETERM":"DIZZINESS","AELLT":"DIZZY","AELLTCD":null,"AEDECOD":"DIZZINESS","AEPTCD":null,"AEHLT":"HLT_0619","AEHLTCD":null,"AEHLGT":"HLGT_0751","AEHLGTCD":null,"AEBODSYS":"NERVOUS SYSTEM DISORDERS","AEBDSYCD":null,"AESOC":"NERVOUS SYSTEM DISORDERS","AESOCCD":null,"ASTDT":"2013-09-02","ASTDY":5,"AENDT":"2013-09-03","AENDY":6,"AESEV":"MODERATE","AESEVN":2,"AESER":"N","AESERF":"N","AEACN":"","AEACNN":null,"AEREL":"REMOTE","AEOUT":"RECOVERED/RESOLVED","AESCONG":"N","AESDISAB":"N","AESDTH":"N","AESDTHFL":"N","AESHOSP":"N","AESLIFE":"N","AESOD":"N","TRTEMFL":"Y","DERM_FL":"N","TRT01A":"Xanomeline High Dose","TRT01AN":3,"SAFFL":"Y","ITTFL":"Y","SITEID":"701","AGE":61,"SEX":"M","RACE":"WHITE","ARMCD":"Xan_Hi","TRTSDT":"2013-08-29","TRTEDT":"2013-11-05"},{"STUDYID":"CDISCPILOT01","USUBJID":"01-701-1302","DOMAIN":"ADAE","AESEQ":10,"AETERM":"MYALGIA","AELLT":"MYALGIA","AELLTCD":null,"AEDECOD":"MYALGIA","AEPTCD":null,"AEHLT":"HLT_0700","AEHLTCD":null,"AEHLGT":"HLGT_0121","AEHLGTCD":null,"AEBODSYS":"MUSCULOSKELETAL AND CONNECTIVE TISSUE DISORDERS","AEBDSYCD":null,"AESOC":"MUSCULOSKELETAL AND CONNECTIVE TISSUE DISORDERS","AESOCCD":null,"ASTDT":"2013-09-02","ASTDY":5,"AENDT":null,"AENDY":null,"AESEV":"MILD","AESEVN":1,"AESER":"N","AESERF":"N","AEACN":"","AEACNN":null,"AEREL":"POSSIBLE","AEOUT":"NOT RECOVERED/NOT RESOLVED","AESCONG":"N","AESDISAB":"N","AESDTH":"N","AESDTHFL":"N","AESHOSP":"N","AESLIFE":"N","AESOD":"N","TRTEMFL":"Y","DERM_FL":"N","TRT01A":"Xanomeline High Dose","TRT01AN":3,"SAFFL":"Y","ITTFL":"Y","SITEID":"701","AGE":61,"SEX":"M","RACE":"WHITE","ARMCD":"Xan_Hi","TRTSDT":"2013-08-29","TRTEDT":"2013-11-05"},{"STUDYID":"CDISCPILOT01","USUBJID":"01-701-1302","DOMAIN":"ADAE","AESEQ":11,"AETERM":"DIZZINESS","AELLT":"LIGHTHEADEDNESS","AELLTCD":null,"AEDECOD":"DIZZINESS","AEPTCD":null,"AEHLT":"HLT_0619","AEHLTCD":null,"AEHLGT":"HLGT_0751","AEHLGTCD":null,"AEBODSYS":"NERVOUS SYSTEM DISORDERS","AEBDSYCD":null,"AESOC":"NERVOUS SYSTEM DISORDERS","AESOCCD":null,"ASTDT":"2013-09-04","ASTDY":7,"AENDT":null,"AENDY":null,"AESEV":"MILD","AESEVN":1,"AESER":"N","AESERF":"N","AEACN":"","AEACNN":null,"AEREL":"POSSIBLE","AEOUT":"NOT RECOVERED/NOT RESOLVED","AESCONG":"N","AESDISAB":"N","AESDTH":"N","AESDTHFL":"N","AESHOSP":"N","AESLIFE":"N","AESOD":"N","TRTEMFL":"Y","DERM_FL":"N","TRT01A":"Xanomeline High Dose","TRT01AN":3,"SAFFL":"Y","ITTFL":"Y","SITEID":"701","AGE":61,"SEX":"M","RACE":"WHITE","ARMCD":"Xan_Hi","TRTSDT":"2013-08-29","TRTEDT":"2013-11-05"},{"STUDYID":"CDISCPILOT01","USUBJID":"01-701-1302","DOMAIN":"ADAE","AESEQ":12,"AETERM":"CONTUSION","AELLT":"BRUISE","AELLTCD":null,"AEDECOD":"CONTUSION","AEPTCD":null,"AEHLT":"HLT_0713","AEHLTCD":null,"AEHLGT":"HLGT_0381","AEHLGTCD":null,"AEBODSYS":"INJURY, POISONING AND PROCEDURAL COMPLICATIONS","AEBDSYCD":null,"AESOC":"INJURY, POISONING AND PROCEDURAL COMPLICATIONS","AESOCCD":null,"ASTDT":"2013-09-05","ASTDY":8,"AENDT":"2013-10-08","AENDY":41,"AESEV":"MILD","AESEVN":1,"AESER":"N","AESERF":"N","AEACN":"","AEACNN":null,"AEREL":"REMOTE","AEOUT":"NOT RECOVERED/NOT RESOLVED","AESCONG":"N","AESDISAB":"N","AESDTH":"N","AESDTHFL":"N","AESHOSP":"N","AESLIFE":"N","AESOD":"N","TRTEMFL":"Y","DERM_FL":"N","TRT01A":"Xanomeline High Dose","TRT01AN":3,"SAFFL":"Y","ITTFL":"Y","SITEID":"701","AGE":61,"SEX":"M","RACE":"WHITE","ARMCD":"Xan_Hi","TRTSDT":"2013-08-29","TRTEDT":"2013-11-05"},{"STUDYID":"CDISCPILOT01","USUBJID":"01-701-1302","DOMAIN":"ADAE","AESEQ":13,"AETERM":"HEADACHE","AELLT":"HEADACHE","AELLTCD":null,"AEDECOD":"HEADACHE","AEPTCD":null,"AEHLT":"HLT_0064","AEHLTCD":null,"AEHLGT":"HLGT_0344","AEHLGTCD":null,"AEBODSYS":"NERVOUS SYSTEM DISORDERS","AEBDSYCD":null,"AESOC":"NERVOUS SYSTEM DISORDERS","AESOCCD":null,"ASTDT":"2013-09-15","ASTDY":18,"AENDT":null,"AENDY":null,"AESEV":"MILD","AESEVN":1,"AESER":"N","AESERF":"N","AEACN":"","AEACNN":null,"AEREL":"NONE","AEOUT":"NOT RECOVERED/NOT RESOLVED","AESCONG":"N","AESDISAB":"N","AESDTH":"N","AESDTHFL":"N","AESHOSP":"N","AESLIFE":"N","AESOD":"N","TRTEMFL":"Y","DERM_FL":"N","TRT01A":"Xanomeline High Dose","TRT01AN":3,"SAFFL":"Y","ITTFL":"Y","SITEID":"701","AGE":61,"SEX":"M","RACE":"WHITE","ARMCD":"Xan_Hi","TRTSDT":"2013-08-29","TRTEDT":"2013-11-05"},{"STUDYID":"CDISCPILOT01","USUBJID":"01-701-1302","DOMAIN":"ADAE","AESEQ":14,"AETERM":"EPISTAXIS","AELLT":"NOSE BLEED","AELLTCD":null,"AEDECOD":"EPISTAXIS","AEPTCD":null,"AEHLT":"HLT_0386","AEHLTCD":null,"AEHLGT":"HLGT_0577","AEHLGTCD":null,"AEBODSYS":"RESPIRATORY, THORACIC AND MEDIASTINAL DISORDERS","AEBDSYCD":null,"AESOC":"RESPIRATORY, THORACIC AND MEDIASTINAL DISORDERS","AESOCCD":null,"ASTDT":"2013-09-30","ASTDY":33,"AENDT":null,"AENDY":null,"AESEV":"MILD","AESEVN":1,"AESER":"N","AESERF":"N","AEACN":"","AEACNN":null,"AEREL":"REMOTE","AEOUT":"NOT RECOVERED/NOT RESOLVED","AESCONG":"N","AESDISAB":"N","AESDTH":"N","AESDTHFL":"N","AESHOSP":"N","AESLIFE":"N","AESOD":"N","TRTEMFL":"Y","DERM_FL":"N","TRT01A":"Xanomeline High Dose","TRT01AN":3,"SAFFL":"Y","ITTFL":"Y","SITEID":"701","AGE":61,"SEX":"M","RACE":"WHITE","ARMCD":"Xan_Hi","TRTSDT":"2013-08-29","TRTEDT":"2013-11-05"},{"STUDYID":"CDISCPILOT01","USUBJID":"01-701-1302","DOMAIN":"ADAE","AESEQ":15,"AETERM":"CONTUSION","AELLT":"BRUISE","AELLTCD":null,"AEDECOD":"CONTUSION","AEPTCD":null,"AEHLT":"HLT_0713","AEHLTCD":null,"AEHLGT":"HLGT_0381","AEHLGTCD":null,"AEBODSYS":"INJURY, POISONING AND PROCEDURAL COMPLICATIONS","AEBDSYCD":null,"AESOC":"INJURY, POISONING AND PROCEDURAL COMPLICATIONS","AESOCCD":null,"ASTDT":"2013-09-05","ASTDY":8,"AENDT":"2013-10-08","AENDY":41,"AESEV":"MILD","AESEVN":1,"AESER":"N","AESERF":"N","AEACN":"","AEACNN":null,"AEREL":"REMOTE","AEOUT":"RECOVERED/RESOLVED","AESCONG":"N","AESDISAB":"N","AESDTH":"N","AESDTHFL":"N","AESHOSP":"N","AESLIFE":"N","AESOD":"N","TRTEMFL":"Y","DERM_FL":"N","TRT01A":"Xanomeline High Dose","TRT01AN":3,"SAFFL":"Y","ITTFL":"Y","SITEID":"701","AGE":61,"SEX":"M","RACE":"WHITE","ARMCD":"Xan_Hi","TRTSDT":"2013-08-29","TRTEDT":"2013-11-05"},{"STUDYID":"CDISCPILOT01","USUBJID":"01-701-1302","DOMAIN":"ADAE","AESEQ":16,"AETERM":"APPLICATION SITE ERYTHEMA","AELLT":"APPLICATION SITE REDNESS","AELLTCD":null,"AEDECOD":"APPLICATION SITE ERYTHEMA","AEPTCD":null,"AEHLT":"HLT_0617","AEHLTCD":null,"AEHLGT":"HLGT_0152","AEHLGTCD":null,"AEBODSYS":"GENERAL DISORDERS AND ADMINISTRATION SITE CONDITIONS","AEBDSYCD":null,"AESOC":"GENERAL DISORDERS AND ADMINISTRATION SITE CONDITIONS","AESOCCD":null,"ASTDT":"2013-10-15","ASTDY":48,"AENDT":null,"AENDY":null,"AESEV":"MILD","AESEVN":1,"AESER":"N","AESERF":"N","AEACN":"","AEACNN":null,"AEREL":"PROBABLE","AEOUT":"NOT RECOVERED/NOT RESOLVED","AESCONG":"N","AESDISAB":"N","AESDTH":"N","AESDTHFL":"N","AESHOSP":"N","AESLIFE":"N","AESOD":"N","TRTEMFL":"Y","DERM_FL":"N","TRT01A":"Xanomeline High Dose","TRT01AN":3,"SAFFL":"Y","ITTFL":"Y","SITEID":"701","AGE":61,"SEX":"M","RACE":"WHITE","ARMCD":"Xan_Hi","TRTSDT":"2013-08-29","TRTEDT":"2013-11-05"},{"STUDYID":"CDISCPILOT01","USUBJID":"01-701-1302","DOMAIN":"ADAE","AESEQ":17,"AETERM":"APPLICATION SITE PRURITUS","AELLT":"APPLICATION SITE ITCHING","AELLTCD":null,"AEDECOD":"APPLICATION SITE PRURITUS","AEPTCD":null,"AEHLT":"HLT_0317","AEHLTCD":null,"AEHLGT":"HLGT_0338","AEHLGTCD":null,"AEBODSYS":"GENERAL DISORDERS AND ADMINISTRATION SITE CONDITIONS","AEBDSYCD":null,"AESOC":"GENERAL DISORDERS AND ADMINISTRATION SITE CONDITIONS","AESOCCD":null,"ASTDT":"2013-10-15","ASTDY":48,"AENDT":null,"AENDY":null,"AESEV":"MILD","AESEVN":1,"AESER":"N","AESERF":"N","AEACN":"","AEACNN":null,"AEREL":"PROBABLE","AEOUT":"NOT RECOVERED/NOT RESOLVED","AESCONG":"N","AESDISAB":"N","AESDTH":"N","AESDTHFL":"N","AESHOSP":"N","AESLIFE":"N","AESOD":"N","TRTEMFL":"Y","DERM_FL":"N","TRT01A":"Xanomeline High Dose","TRT01AN":3,"SAFFL":"Y","ITTFL":"Y","SITEID":"701","AGE":61,"SEX":"M","RACE":"WHITE","ARMCD":"Xan_Hi","TRTSDT":"2013-08-29","TRTEDT":"2013-11-05"},{"STUDYID":"CDISCPILOT01","USUBJID":"01-701-1302","DOMAIN":"ADAE","AESEQ":18,"AETERM":"MALAISE","AELLT":"MALAISE","AELLTCD":null,"AEDECOD":"MALAISE","AEPTCD":null,"AEHLT":"HLT_0456","AEHLTCD":null,"AEHLGT":"HLGT_0178","AEHLGTCD":null,"AEBODSYS":"GENERAL DISORDERS AND ADMINISTRATION SITE CONDITIONS","AEBDSYCD":null,"AESOC":"GENERAL DISORDERS AND ADMINISTRATION SITE CONDITIONS","AESOCCD":null,"ASTDT":"2013-09-02","ASTDY":5,"AENDT":null,"AENDY":null,"AESEV":"MODERATE","AESEVN":2,"AESER":"N","AESERF":"N","AEACN":"","AEACNN":null,"AEREL":"REMOTE","AEOUT":"NOT RECOVERED/NOT RESOLVED","AESCONG":"N","AESDISAB":"N","AESDTH":"N","AESDTHFL":"N","AESHOSP":"N","AESLIFE":"N","AESOD":"N","TRTEMFL":"Y","DERM_FL":"N","TRT01A":"Xanomeline High Dose","TRT01AN":3,"SAFFL":"Y","ITTFL":"Y","SITEID":"701","AGE":61,"SEX":"M","RACE":"WHITE","ARMCD":"Xan_Hi","TRTSDT":"2013-08-29","TRTEDT":"2013-11-05"},{"STUDYID":"CDISCPILOT01","USUBJID":"01-701-1302","DOMAIN":"ADAE","AESEQ":19,"AETERM":"RESPIRATORY TRACT CONGESTION","AELLT":"RESPIRATORY TRACT CONGESTION","AELLTCD":null,"AEDECOD":"RESPIRATORY TRACT CONGESTION","AEPTCD":null,"AEHLT":"HLT_0330","AEHLTCD":null,"AEHLGT":"HLGT_0424","AEHLGTCD":null,"AEBODSYS":"RESPIRATORY, THORACIC AND MEDIASTINAL DISORDERS","AEBDSYCD":null,"AESOC":"RESPIRATORY, THORACIC AND MEDIASTINAL DISORDERS","AESOCCD":null,"ASTDT":"2013-10-23","ASTDY":56,"AENDT":null,"AENDY":null,"AESEV":"MILD","AESEVN":1,"AESER":"N","AESERF":"N","AEACN":"","AEACNN":null,"AEREL":"NONE","AEOUT":"NOT RECOVERED/NOT RESOLVED","AESCONG":"N","AESDISAB":"N","AESDTH":"N","AESDTHFL":"N","AESHOSP":"N","AESLIFE":"N","AESOD":"N","TRTEMFL":"Y","DERM_FL":"N","TRT01A":"Xanomeline High Dose","TRT01AN":3,"SAFFL":"Y","ITTFL":"Y","SITEID":"701","AGE":61,"SEX":"M","RACE":"WHITE","ARMCD":"Xan_Hi","TRTSDT":"2013-08-29","TRTEDT":"2013-11-05"},{"STUDYID":"CDISCPILOT01","USUBJID":"01-701-1302","DOMAIN":"ADAE","AESEQ":20,"AETERM":"RHINITIS","AELLT":"CORYZA","AELLTCD":null,"AEDECOD":"RHINITIS","AEPTCD":null,"AEHLT":"HLT_0239","AEHLTCD":null,"AEHLGT":"HLGT_0322","AEHLGTCD":null,"AEBODSYS":"INFECTIONS AND INFESTATIONS","AEBDSYCD":null,"AESOC":"INFECTIONS AND INFESTATIONS","AESOCCD":null,"ASTDT":"2013-10-23","ASTDY":56,"AENDT":null,"AENDY":null,"AESEV":"MILD","AESEVN":1,"AESER":"N","AESERF":"N","AEACN":"","AEACNN":null,"AEREL":"NONE","AEOUT":"NOT RECOVERED/NOT RESOLVED","AESCONG":"N","AESDISAB":"N","AESDTH":"N","AESDTHFL":"N","AESHOSP":"N","AESLIFE":"N","AESOD":"N","TRTEMFL":"Y","DERM_FL":"N","TRT01A":"Xanomeline High Dose","TRT01AN":3,"SAFFL":"Y","ITTFL":"Y","SITEID":"701","AGE":61,"SEX":"M","RACE":"WHITE","ARMCD":"Xan_Hi","TRTSDT":"2013-08-29","TRTEDT":"2013-11-05"},{"STUDYID":"CDISCPILOT01","USUBJID":"01-701-1302","DOMAIN":"ADAE","AESEQ":21,"AETERM":"FEELING ABNORMAL","AELLT":"FOGGY FEELING IN HEAD","AELLTCD":null,"AEDECOD":"FEELING ABNORMAL","AEPTCD":null,"AEHLT":"HLT_0524","AEHLTCD":null,"AEHLGT":"HLGT_0749","AEHLGTCD":null,"AEBODSYS":"GENERAL DISORDERS AND ADMINISTRATION SITE CONDITIONS","AEBDSYCD":null,"AESOC":"GENERAL DISORDERS AND ADMINISTRATION SITE CONDITIONS","AESOCCD":null,"ASTDT":"2013-10-24","ASTDY":57,"AENDT":null,"AENDY":null,"AESEV":"MILD","AESEVN":1,"AESER":"N","AESERF":"N","AEACN":"","AEACNN":null,"AEREL":"POSSIBLE","AEOUT":"NOT RECOVERED/NOT RESOLVED","AESCONG":"N","AESDISAB":"N","AESDTH":"N","AESDTHFL":"N","AESHOSP":"N","AESLIFE":"N","AESOD":"N","TRTEMFL":"Y","DERM_FL":"N","TRT01A":"Xanomeline High Dose","TRT01AN":3,"SAFFL":"Y","ITTFL":"Y","SITEID":"701","AGE":61,"SEX":"M","RACE":"WHITE","ARMCD":"Xan_Hi","TRTSDT":"2013-08-29","TRTEDT":"2013-11-05"},{"STUDYID":"CDISCPILOT01","USUBJID":"01-701-1302","DOMAIN":"ADAE","AESEQ":22,"AETERM":"LISTLESS","AELLT":"LISTLESSNESS","AELLTCD":null,"AEDECOD":"LISTLESS","AEPTCD":null,"AEHLT":"HLT_0657","AEHLTCD":null,"AEHLGT":"HLGT_0124","AEHLGTCD":null,"AEBODSYS":"PSYCHIATRIC DISORDERS","AEBDSYCD":null,"AESOC":"PSYCHIATRIC DISORDERS","AESOCCD":null,"ASTDT":"2013-10-24","ASTDY":57,"AENDT":null,"AENDY":null,"AESEV":"MILD","AESEVN":1,"AESER":"N","AESERF":"N","AEACN":"","AEACNN":null,"AEREL":"POSSIBLE","AEOUT":"NOT RECOVERED/NOT RESOLVED","AESCONG":"N","AESDISAB":"N","AESDTH":"N","AESDTHFL":"N","AESHOSP":"N","AESLIFE":"N","AESOD":"N","TRTEMFL":"Y","DERM_FL":"N","TRT01A":"Xanomeline High Dose","TRT01AN":3,"SAFFL":"Y","ITTFL":"Y","SITEID":"701","AGE":61,"SEX":"M","RACE":"WHITE","ARMCD":"Xan_Hi","TRTSDT":"2013-08-29","TRTEDT":"2013-11-05"},{"STUDYID":"CDISCPILOT01","USUBJID":"01-701-1302","DOMAIN":"ADAE","AESEQ":23,"AETERM":"LIBIDO DECREASED","AELLT":"LIBIDO DECREASED","AELLTCD":null,"AEDECOD":"LIBIDO DECREASED","AEPTCD":null,"AEHLT":"HLT_0338","AEHLTCD":null,"AEHLGT":"HLGT_0496","AEHLGTCD":null,"AEBODSYS":"PSYCHIATRIC DISORDERS","AEBDSYCD":null,"AESOC":"PSYCHIATRIC DISORDERS","AESOCCD":null,"ASTDT":"2013-10-24","ASTDY":57,"AENDT":null,"AENDY":null,"AESEV":"MILD","AESEVN":1,"AESER":"N","AESERF":"N","AEACN":"","AEACNN":null,"AEREL":"POSSIBLE","AEOUT":"NOT RECOVERED/NOT RESOLVED","AESCONG":"N","AESDISAB":"N","AESDTH":"N","AESDTHFL":"N","AESHOSP":"N","AESLIFE":"N","AESOD":"N","TRTEMFL":"Y","DERM_FL":"N","TRT01A":"Xanomeline High Dose","TRT01AN":3,"SAFFL":"Y","ITTFL":"Y","SITEID":"701","AGE":61,"SEX":"M","RACE":"WHITE","ARMCD":"Xan_Hi","TRTSDT":"2013-08-29","TRTEDT":"2013-11-05"},{"STUDYID":"CDISCPILOT01","USUBJID":"01-701-1317","DOMAIN":"ADAE","AESEQ":1,"AETERM":"ONYCHOMYCOSIS","AELLT":"ONYCHOMYCOSIS","AELLTCD":null,"AEDECOD":"ONYCHOMYCOSIS","AEPTCD":null,"AEHLT":"HLT_0275","AEHLTCD":null,"AEHLGT":"HLGT_0243","AEHLGTCD":null,"AEBODSYS":"INFECTIONS AND INFESTATIONS","AEBDSYCD":null,"AESOC":"INFECTIONS AND INFESTATIONS","AESOCCD":null,"ASTDT":"2014-05-13","ASTDY":-9,"AENDT":null,"AENDY":null,"AESEV":"MILD","AESEVN":1,"AESER":"N","AESERF":"N","AEACN":"","AEACNN":null,"AEREL":"NONE","AEOUT":"NOT RECOVERED/NOT RESOLVED","AESCONG":"N","AESDISAB":"N","AESDTH":"N","AESDTHFL":"N","AESHOSP":"N","AESLIFE":"N","AESOD":"N","TRTEMFL":"N","DERM_FL":"N","TRT01A":"Xanomeline Low Dose","TRT01AN":2,"SAFFL":"Y","ITTFL":"Y","SITEID":"701","AGE":68,"SEX":"M","RACE":"WHITE","ARMCD":"Xan_Lo","TRTSDT":"2014-05-22","TRTEDT":"2014-11-20"},{"STUDYID":"CDISCPILOT01","USUBJID":"01-701-1317","DOMAIN":"ADAE","AESEQ":2,"AETERM":"CYST","AELLT":"CYST","AELLTCD":null,"AEDECOD":"CYST","AEPTCD":null,"AEHLT":"HLT_0763","AEHLTCD":null,"AEHLGT":"HLGT_0341","AEHLGTCD":null,"AEBODSYS":"GENERAL DISORDERS AND ADMINISTRATION SITE CONDITIONS","AEBDSYCD":null,"AESOC":"GENERAL DISORDERS AND ADMINISTRATION SITE CONDITIONS","AESOCCD":null,"ASTDT":"2014-05-13","ASTDY":-9,"AENDT":null,"AENDY":null,"AESEV":"MILD","AESEVN":1,"AESER":"N","AESERF":"N","AEACN":"","AEACNN":null,"AEREL":"NONE","AEOUT":"NOT RECOVERED/NOT RESOLVED","AESCONG":"N","AESDISAB":"N","AESDTH":"N","AESDTHFL":"N","AESHOSP":"N","AESLIFE":"N","AESOD":"N","TRTEMFL":"N","DERM_FL":"N","TRT01A":"Xanomeline Low Dose","TRT01AN":2,"SAFFL":"Y","ITTFL":"Y","SITEID":"701","AGE":68,"SEX":"M","RACE":"WHITE","ARMCD":"Xan_Lo","TRTSDT":"2014-05-22","TRTEDT":"2014-11-20"},{"STUDYID":"CDISCPILOT01","USUBJID":"01-701-1317","DOMAIN":"ADAE","AESEQ":3,"AETERM":"APPLICATION SITE ERYTHEMA","AELLT":"APPLICATION SITE REDNESS","AELLTCD":null,"AEDECOD":"APPLICATION SITE ERYTHEMA","AEPTCD":null,"AEHLT":"HLT_0617","AEHLTCD":null,"AEHLGT":"HLGT_0152","AEHLGTCD":null,"AEBODSYS":"GENERAL DISORDERS AND ADMINISTRATION SITE CONDITIONS","AEBDSYCD":null,"AESOC":"GENERAL DISORDERS AND ADMINISTRATION SITE CONDITIONS","AESOCCD":null,"ASTDT":"2014-06-23","ASTDY":33,"AENDT":null,"AENDY":null,"AESEV":"MILD","AESEVN":1,"AESER":"N","AESERF":"N","AEACN":"","AEACNN":null,"AEREL":"POSSIBLE","AEOUT":"NOT RECOVERED/NOT RESOLVED","AESCONG":"N","AESDISAB":"N","AESDTH":"N","AESDTHFL":"N","AESHOSP":"N","AESLIFE":"N","AESOD":"N","TRTEMFL":"Y","DERM_FL":"N","TRT01A":"Xanomeline Low Dose","TRT01AN":2,"SAFFL":"Y","ITTFL":"Y","SITEID":"701","AGE":68,"SEX":"M","RACE":"WHITE","ARMCD":"Xan_Lo","TRTSDT":"2014-05-22","TRTEDT":"2014-11-20"},{"STUDYID":"CDISCPILOT01","USUBJID":"01-701-1317","DOMAIN":"ADAE","AESEQ":4,"AETERM":"APPLICATION SITE PRURITUS","AELLT":"APPLICATION SITE ITCHING","AELLTCD":null,"AEDECOD":"APPLICATION SITE PRURITUS","AEPTCD":null,"AEHLT":"HLT_0317","AEHLTCD":null,"AEHLGT":"HLGT_0338","AEHLGTCD":null,"AEBODSYS":"GENERAL DISORDERS AND ADMINISTRATION SITE CONDITIONS","AEBDSYCD":null,"AESOC":"GENERAL DISORDERS AND ADMINISTRATION SITE CONDITIONS","AESOCCD":null,"ASTDT":"2014-06-23","ASTDY":33,"AENDT":null,"AENDY":null,"AESEV":"MILD","AESEVN":1,"AESER":"N","AESERF":"N","AEACN":"","AEACNN":null,"AEREL":"POSSIBLE","AEOUT":"NOT RECOVERED/NOT RESOLVED","AESCONG":"N","AESDISAB":"N","AESDTH":"N","AESDTHFL":"N","AESHOSP":"N","AESLIFE":"N","AESOD":"N","TRTEMFL":"Y","DERM_FL":"N","TRT01A":"Xanomeline Low Dose","TRT01AN":2,"SAFFL":"Y","ITTFL":"Y","SITEID":"701","AGE":68,"SEX":"M","RACE":"WHITE","ARMCD":"Xan_Lo","TRTSDT":"2014-05-22","TRTEDT":"2014-11-20"},{"STUDYID":"CDISCPILOT01","USUBJID":"01-701-1317","DOMAIN":"ADAE","AESEQ":5,"AETERM":"APPLICATION SITE URTICARIA","AELLT":"APPLICATION SITE URTICARIA","AELLTCD":null,"AEDECOD":"APPLICATION SITE URTICARIA","AEPTCD":null,"AEHLT":"HLT_0196","AEHLTCD":null,"AEHLGT":"HLGT_0233","AEHLGTCD":null,"AEBODSYS":"GENERAL DISORDERS AND ADMINISTRATION SITE CONDITIONS","AEBDSYCD":null,"AESOC":"GENERAL DISORDERS AND ADMINISTRATION SITE CONDITIONS","AESOCCD":null,"ASTDT":"2014-06-23","ASTDY":33,"AENDT":null,"AENDY":null,"AESEV":"MILD","AESEVN":1,"AESER":"N","AESERF":"N","AEACN":"","AEACNN":null,"AEREL":"POSSIBLE","AEOUT":"NOT RECOVERED/NOT RESOLVED","AESCONG":"N","AESDISAB":"N","AESDTH":"N","AESDTHFL":"N","AESHOSP":"N","AESLIFE":"N","AESOD":"N","TRTEMFL":"Y","DERM_FL":"N","TRT01A":"Xanomeline Low Dose","TRT01AN":2,"SAFFL":"Y","ITTFL":"Y","SITEID":"701","AGE":68,"SEX":"M","RACE":"WHITE","ARMCD":"Xan_Lo","TRTSDT":"2014-05-22","TRTEDT":"2014-11-20"},{"STUDYID":"CDISCPILOT01","USUBJID":"01-701-1317","DOMAIN":"ADAE","AESEQ":6,"AETERM":"DEPRESSED MOOD","AELLT":"DEPRESSED MOOD","AELLTCD":null,"AEDECOD":"DEPRESSED MOOD","AEPTCD":null,"AEHLT":"HLT_0784","AEHLTCD":null,"AEHLGT":"HLGT_0122","AEHLGTCD":null,"AEBODSYS":"PSYCHIATRIC DISORDERS","AEBDSYCD":null,"AESOC":"PSYCHIATRIC DISORDERS","AESOCCD":null,"ASTDT":"2014-07-04","ASTDY":44,"AENDT":null,"AENDY":null,"AESEV":"MILD","AESEVN":1,"AESER":"N","AESERF":"N","AEACN":"","AEACNN":null,"AEREL":"POSSIBLE","AEOUT":"NOT RECOVERED/NOT RESOLVED","AESCONG":"N","AESDISAB":"N","AESDTH":"N","AESDTHFL":"N","AESHOSP":"N","AESLIFE":"N","AESOD":"N","TRTEMFL":"Y","DERM_FL":"N","TRT01A":"Xanomeline Low Dose","TRT01AN":2,"SAFFL":"Y","ITTFL":"Y","SITEID":"701","AGE":68,"SEX":"M","RACE":"WHITE","ARMCD":"Xan_Lo","TRTSDT":"2014-05-22","TRTEDT":"2014-11-20"},{"STUDYID":"CDISCPILOT01","USUBJID":"01-701-1317","DOMAIN":"ADAE","AESEQ":7,"AETERM":"DEPRESSED MOOD","AELLT":"DEPRESSED MOOD","AELLTCD":null,"AEDECOD":"DEPRESSED MOOD","AEPTCD":null,"AEHLT":"HLT_0784","AEHLTCD":null,"AEHLGT":"HLGT_0122","AEHLGTCD":null,"AEBODSYS":"PSYCHIATRIC DISORDERS","AEBDSYCD":null,"AESOC":"PSYCHIATRIC DISORDERS","AESOCCD":null,"ASTDT":"2014-07-04","ASTDY":44,"AENDT":null,"AENDY":null,"AESEV":"MODERATE","AESEVN":2,"AESER":"N","AESERF":"N","AEACN":"","AEACNN":null,"AEREL":"POSSIBLE","AEOUT":"NOT RECOVERED/NOT RESOLVED","AESCONG":"N","AESDISAB":"N","AESDTH":"N","AESDTHFL":"N","AESHOSP":"N","AESLIFE":"N","AESOD":"N","TRTEMFL":"Y","DERM_FL":"N","TRT01A":"Xanomeline Low Dose","TRT01AN":2,"SAFFL":"Y","ITTFL":"Y","SITEID":"701","AGE":68,"SEX":"M","RACE":"WHITE","ARMCD":"Xan_Lo","TRTSDT":"2014-05-22","TRTEDT":"2014-11-20"},{"STUDYID":"CDISCPILOT01","USUBJID":"01-701-1317","DOMAIN":"ADAE","AESEQ":8,"AETERM":"FATIGUE","AELLT":"TIREDNESS","AELLTCD":null,"AEDECOD":"FATIGUE","AEPTCD":null,"AEHLT":"HLT_0043","AEHLTCD":null,"AEHLGT":"HLGT_0181","AEHLGTCD":null,"AEBODSYS":"GENERAL DISORDERS AND ADMINISTRATION SITE CONDITIONS","AEBDSYCD":null,"AESOC":"GENERAL DISORDERS AND ADMINISTRATION SITE CONDITIONS","AESOCCD":null,"ASTDT":"2014-09-12","ASTDY":114,"AENDT":null,"AENDY":null,"AESEV":"MILD","AESEVN":1,"AESER":"N","AESERF":"N","AEACN":"","AEACNN":null,"AEREL":"REMOTE","AEOUT":"NOT RECOVERED/NOT RESOLVED","AESCONG":"N","AESDISAB":"N","AESDTH":"N","AESDTHFL":"N","AESHOSP":"N","AESLIFE":"N","AESOD":"N","TRTEMFL":"Y","DERM_FL":"N","TRT01A":"Xanomeline Low Dose","TRT01AN":2,"SAFFL":"Y","ITTFL":"Y","SITEID":"701","AGE":68,"SEX":"M","RACE":"WHITE","ARMCD":"Xan_Lo","TRTSDT":"2014-05-22","TRTEDT":"2014-11-20"},{"STUDYID":"CDISCPILOT01","USUBJID":"01-701-1317","DOMAIN":"ADAE","AESEQ":9,"AETERM":"DYSPHONIA","AELLT":"HOARSENESS","AELLTCD":null,"AEDECOD":"DYSPHONIA","AEPTCD":null,"AEHLT":"HLT_0073","AEHLTCD":null,"AEHLGT":"HLGT_0274","AEHLGTCD":null,"AEBODSYS":"RESPIRATORY, THORACIC AND MEDIASTINAL DISORDERS","AEBDSYCD":null,"AESOC":"RESPIRATORY, THORACIC AND MEDIASTINAL DISORDERS","AESOCCD":null,"ASTDT":"2014-11-03","ASTDY":166,"AENDT":null,"AENDY":null,"AESEV":"MILD","AESEVN":1,"AESER":"N","AESERF":"N","AEACN":"","AEACNN":null,"AEREL":"REMOTE","AEOUT":"NOT RECOVERED/NOT RESOLVED","AESCONG":"N","AESDISAB":"N","AESDTH":"N","AESDTHFL":"N","AESHOSP":"N","AESLIFE":"N","AESOD":"N","TRTEMFL":"Y","DERM_FL":"N","TRT01A":"Xanomeline Low Dose","TRT01AN":2,"SAFFL":"Y","ITTFL":"Y","SITEID":"701","AGE":68,"SEX":"M","RACE":"WHITE","ARMCD":"Xan_Lo","TRTSDT":"2014-05-22","TRTEDT":"2014-11-20"},{"STUDYID":"CDISCPILOT01","USUBJID":"01-701-1324","DOMAIN":"ADAE","AESEQ":1,"AETERM":"APPLICATION SITE ERYTHEMA","AELLT":"APPLICATION SITE ERYTHEMA","AELLTCD":null,"AEDECOD":"APPLICATION SITE ERYTHEMA","AEPTCD":null,"AEHLT":"HLT_0617","AEHLTCD":null,"AEHLGT":"HLGT_0152","AEHLGTCD":null,"AEBODSYS":"GENERAL DISORDERS AND ADMINISTRATION SITE CONDITIONS","AEBDSYCD":null,"AESOC":"GENERAL DISORDERS AND ADMINISTRATION SITE CONDITIONS","AESOCCD":null,"ASTDT":"2012-10-22","ASTDY":21,"AENDT":null,"AENDY":null,"AESEV":"MILD","AESEVN":1,"AESER":"N","AESERF":"N","AEACN":"","AEACNN":null,"AEREL":"PROBABLE","AEOUT":"NOT RECOVERED/NOT RESOLVED","AESCONG":"N","AESDISAB":"N","AESDTH":"N","AESDTHFL":"N","AESHOSP":"N","AESLIFE":"N","AESOD":"N","TRTEMFL":"Y","DERM_FL":"N","TRT01A":"Xanomeline Low Dose","TRT01AN":2,"SAFFL":"Y","ITTFL":"Y","SITEID":"701","AGE":79,"SEX":"M","RACE":"WHITE","ARMCD":"Xan_Lo","TRTSDT":"2012-10-02","TRTEDT":"2013-04-02"},{"STUDYID":"CDISCPILOT01","USUBJID":"01-701-1324","DOMAIN":"ADAE","AESEQ":2,"AETERM":"APPLICATION SITE PRURITUS","AELLT":"APPLICATION SITE ITCHING","AELLTCD":null,"AEDECOD":"APPLICATION SITE PRURITUS","AEPTCD":null,"AEHLT":"HLT_0317","AEHLTCD":null,"AEHLGT":"HLGT_0338","AEHLGTCD":null,"AEBODSYS":"GENERAL DISORDERS AND ADMINISTRATION SITE CONDITIONS","AEBDSYCD":null,"AESOC":"GENERAL DISORDERS AND ADMINISTRATION SITE CONDITIONS","AESOCCD":null,"ASTDT":"2012-12-02","ASTDY":62,"AENDT":null,"AENDY":null,"AESEV":"MILD","AESEVN":1,"AESER":"N","AESERF":"N","AEACN":"","AEACNN":null,"AEREL":"PROBABLE","AEOUT":"NOT RECOVERED/NOT RESOLVED","AESCONG":"N","AESDISAB":"N","AESDTH":"N","AESDTHFL":"N","AESHOSP":"N","AESLIFE":"N","AESOD":"N","TRTEMFL":"Y","DERM_FL":"N","TRT01A":"Xanomeline Low Dose","TRT01AN":2,"SAFFL":"Y","ITTFL":"Y","SITEID":"701","AGE":79,"SEX":"M","RACE":"WHITE","ARMCD":"Xan_Lo","TRTSDT":"2012-10-02","TRTEDT":"2013-04-02"},{"STUDYID":"CDISCPILOT01","USUBJID":"01-701-1324","DOMAIN":"ADAE","AESEQ":3,"AETERM":"APPLICATION SITE VESICLES","AELLT":"APPLICATION SITE BLISTER","AELLTCD":null,"AEDECOD":"APPLICATION SITE VESICLES","AEPTCD":null,"AEHLT":"HLT_0180","AEHLTCD":null,"AEHLGT":"HLGT_0576","AEHLGTCD":null,"AEBODSYS":"GENERAL DISORDERS AND ADMINISTRATION SITE CONDITIONS","AEBDSYCD":null,"AESOC":"GENERAL DISORDERS AND ADMINISTRATION SITE CONDITIONS","AESOCCD":null,"ASTDT":"2012-12-25","ASTDY":85,"AENDT":"2013-01-16","AENDY":107,"AESEV":"MILD","AESEVN":1,"AESER":"N","AESERF":"N","AEACN":"","AEACNN":null,"AEREL":"PROBABLE","AEOUT":"NOT RECOVERED/NOT RESOLVED","AESCONG":"N","AESDISAB":"N","AESDTH":"N","AESDTHFL":"N","AESHOSP":"N","AESLIFE":"N","AESOD":"N","TRTEMFL":"Y","DERM_FL":"N","TRT01A":"Xanomeline Low Dose","TRT01AN":2,"SAFFL":"Y","ITTFL":"Y","SITEID":"701","AGE":79,"SEX":"M","RACE":"WHITE","ARMCD":"Xan_Lo","TRTSDT":"2012-10-02","TRTEDT":"2013-04-02"},{"STUDYID":"CDISCPILOT01","USUBJID":"01-701-1324","DOMAIN":"ADAE","AESEQ":4,"AETERM":"APPLICATION SITE VESICLES","AELLT":"APPLICATION SITE BLISTER","AELLTCD":null,"AEDECOD":"APPLICATION SITE VESICLES","AEPTCD":null,"AEHLT":"HLT_0180","AEHLTCD":null,"AEHLGT":"HLGT_0576","AEHLGTCD":null,"AEBODSYS":"GENERAL DISORDERS AND ADMINISTRATION SITE CONDITIONS","AEBDSYCD":null,"AESOC":"GENERAL DISORDERS AND ADMINISTRATION SITE CONDITIONS","AESOCCD":null,"ASTDT":"2012-12-25","ASTDY":85,"AENDT":"2013-01-16","AENDY":107,"AESEV":"MILD","AESEVN":1,"AESER":"N","AESERF":"N","AEACN":"","AEACNN":null,"AEREL":"PROBABLE","AEOUT":"RECOVERED/RESOLVED","AESCONG":"N","AESDISAB":"N","AESDTH":"N","AESDTHFL":"N","AESHOSP":"N","AESLIFE":"N","AESOD":"N","TRTEMFL":"Y","DERM_FL":"N","TRT01A":"Xanomeline Low Dose","TRT01AN":2,"SAFFL":"Y","ITTFL":"Y","SITEID":"701","AGE":79,"SEX":"M","RACE":"WHITE","ARMCD":"Xan_Lo","TRTSDT":"2012-10-02","TRTEDT":"2013-04-02"},{"STUDYID":"CDISCPILOT01","USUBJID":"01-701-1341","DOMAIN":"ADAE","AESEQ":1,"AETERM":"APPLICATION SITE PRURITUS","AELLT":"APPLICATION SITE ITCHING","AELLTCD":null,"AEDECOD":"APPLICATION SITE PRURITUS","AEPTCD":null,"AEHLT":"HLT_0317","AEHLTCD":null,"AEHLGT":"HLGT_0338","AEHLGTCD":null,"AEBODSYS":"GENERAL DISORDERS AND ADMINISTRATION SITE CONDITIONS","AEBDSYCD":null,"AESOC":"GENERAL DISORDERS AND ADMINISTRATION SITE CONDITIONS","AESOCCD":null,"ASTDT":"2013-01-19","ASTDY":15,"AENDT":null,"AENDY":null,"AESEV":"MODERATE","AESEVN":2,"AESER":"N","AESERF":"N","AEACN":"","AEACNN":null,"AEREL":"PROBABLE","AEOUT":"NOT RECOVERED/NOT RESOLVED","AESCONG":"N","AESDISAB":"N","AESDTH":"N","AESDTHFL":"N","AESHOSP":"N","AESLIFE":"N","AESOD":"N","TRTEMFL":"Y","DERM_FL":"N","TRT01A":"Xanomeline Low Dose","TRT01AN":2,"SAFFL":"Y","ITTFL":"Y","SITEID":"701","AGE":51,"SEX":"M","RACE":"WHITE","ARMCD":"Xan_Lo","TRTSDT":"2013-01-05","TRTEDT":"2013-01-26"},{"STUDYID":"CDISCPILOT01","USUBJID":"01-701-1341","DOMAIN":"ADAE","AESEQ":2,"AETERM":"APPLICATION SITE ERYTHEMA","AELLT":"APPLICATION SITE REDNESS","AELLTCD":null,"AEDECOD":"APPLICATION SITE ERYTHEMA","AEPTCD":null,"AEHLT":"HLT_0617","AEHLTCD":null,"AEHLGT":"HLGT_0152","AEHLGTCD":null,"AEBODSYS":"GENERAL DISORDERS AND ADMINISTRATION SITE CONDITIONS","AEBDSYCD":null,"AESOC":"GENERAL DISORDERS AND ADMINISTRATION SITE CONDITIONS","AESOCCD":null,"ASTDT":"2013-01-19","ASTDY":15,"AENDT":null,"AENDY":null,"AESEV":"MODERATE","AESEVN":2,"AESER":"N","AESERF":"N","AEACN":"","AEACNN":null,"AEREL":"PROBABLE","AEOUT":"NOT RECOVERED/NOT RESOLVED","AESCONG":"N","AESDISAB":"N","AESDTH":"N","AESDTHFL":"N","AESHOSP":"N","AESLIFE":"N","AESOD":"N","TRTEMFL":"Y","DERM_FL":"N","TRT01A":"Xanomeline Low Dose","TRT01AN":2,"SAFFL":"Y","ITTFL":"Y","SITEID":"701","AGE":51,"SEX":"M","RACE":"WHITE","ARMCD":"Xan_Lo","TRTSDT":"2013-01-05","TRTEDT":"2013-01-26"},{"STUDYID":"CDISCPILOT01","USUBJID":"01-701-1341","DOMAIN":"ADAE","AESEQ":3,"AETERM":"APPLICATION SITE PRURITUS","AELLT":"APPLICATION SITE ITCHING","AELLTCD":null,"AEDECOD":"APPLICATION SITE PRURITUS","AEPTCD":null,"AEHLT":"HLT_0317","AEHLTCD":null,"AEHLGT":"HLGT_0338","AEHLGTCD":null,"AEBODSYS":"GENERAL DISORDERS AND ADMINISTRATION SITE CONDITIONS","AEBDSYCD":null,"AESOC":"GENERAL DISORDERS AND ADMINISTRATION SITE CONDITIONS","AESOCCD":null,"ASTDT":"2013-01-26","ASTDY":22,"AENDT":"2013-01-30","AENDY":26,"AESEV":"MODERATE","AESEVN":2,"AESER":"N","AESERF":"N","AEACN":"","AEACNN":null,"AEREL":"PROBABLE","AEOUT":"RECOVERED/RESOLVED","AESCONG":"N","AESDISAB":"N","AESDTH":"N","AESDTHFL":"N","AESHOSP":"N","AESLIFE":"N","AESOD":"N","TRTEMFL":"Y","DERM_FL":"N","TRT01A":"Xanomeline Low Dose","TRT01AN":2,"SAFFL":"Y","ITTFL":"Y","SITEID":"701","AGE":51,"SEX":"M","RACE":"WHITE","ARMCD":"Xan_Lo","TRTSDT":"2013-01-05","TRTEDT":"2013-01-26"},{"STUDYID":"CDISCPILOT01","USUBJID":"01-701-1341","DOMAIN":"ADAE","AESEQ":4,"AETERM":"APPLICATION SITE ERYTHEMA","AELLT":"APPLICATION SITE REDNESS","AELLTCD":null,"AEDECOD":"APPLICATION SITE ERYTHEMA","AEPTCD":null,"AEHLT":"HLT_0617","AEHLTCD":null,"AEHLGT":"HLGT_0152","AEHLGTCD":null,"AEBODSYS":"GENERAL DISORDERS AND ADMINISTRATION SITE CONDITIONS","AEBDSYCD":null,"AESOC":"GENERAL DISORDERS AND ADMINISTRATION SITE CONDITIONS","AESOCCD":null,"ASTDT":"2013-01-26","ASTDY":22,"AENDT":null,"AENDY":null,"AESEV":"MODERATE","AESEVN":2,"AESER":"N","AESERF":"N","AEACN":"","AEACNN":null,"AEREL":"PROBABLE","AEOUT":"NOT RECOVERED/NOT RESOLVED","AESCONG":"N","AESDISAB":"N","AESDTH":"N","AESDTHFL":"N","AESHOSP":"N","AESLIFE":"N","AESOD":"N","TRTEMFL":"Y","DERM_FL":"N","TRT01A":"Xanomeline Low Dose","TRT01AN":2,"SAFFL":"Y","ITTFL":"Y","SITEID":"701","AGE":51,"SEX":"M","RACE":"WHITE","ARMCD":"Xan_Lo","TRTSDT":"2013-01-05","TRTEDT":"2013-01-26"},{"STUDYID":"CDISCPILOT01","USUBJID":"01-701-1341","DOMAIN":"ADAE","AESEQ":5,"AETERM":"APPLICATION SITE IRRITATION","AELLT":"APPLICATION SITE BURNING","AELLTCD":null,"AEDECOD":"APPLICATION SITE IRRITATION","AEPTCD":null,"AEHLT":"HLT_0061","AEHLTCD":null,"AEHLGT":"HLGT_0346","AEHLGTCD":null,"AEBODSYS":"GENERAL DISORDERS AND ADMINISTRATION SITE CONDITIONS","AEBDSYCD":null,"AESOC":"GENERAL DISORDERS AND ADMINISTRATION SITE CONDITIONS","AESOCCD":null,"ASTDT":"2013-01-26","ASTDY":22,"AENDT":"2013-01-30","AENDY":26,"AESEV":"MODERATE","AESEVN":2,"AESER":"N","AESERF":"N","AEACN":"","AEACNN":null,"AEREL":"PROBABLE","AEOUT":"RECOVERED/RESOLVED","AESCONG":"N","AESDISAB":"N","AESDTH":"N","AESDTHFL":"N","AESHOSP":"N","AESLIFE":"N","AESOD":"N","TRTEMFL":"Y","DERM_FL":"N","TRT01A":"Xanomeline Low Dose","TRT01AN":2,"SAFFL":"Y","ITTFL":"Y","SITEID":"701","AGE":51,"SEX":"M","RACE":"WHITE","ARMCD":"Xan_Lo","TRTSDT":"2013-01-05","TRTEDT":"2013-01-26"},{"STUDYID":"CDISCPILOT01","USUBJID":"01-701-1360","DOMAIN":"ADAE","AESEQ":1,"AETERM":"APPLICATION SITE ERYTHEMA","AELLT":"APPLICATION SITE ERYTHEMA","AELLTCD":null,"AEDECOD":"APPLICATION SITE ERYTHEMA","AEPTCD":null,"AEHLT":"HLT_0617","AEHLTCD":null,"AEHLGT":"HLGT_0152","AEHLGTCD":null,"AEBODSYS":"GENERAL DISORDERS AND ADMINISTRATION SITE CONDITIONS","AEBDSYCD":null,"AESOC":"GENERAL DISORDERS AND ADMINISTRATION SITE CONDITIONS","AESOCCD":null,"ASTDT":"2013-08-02","ASTDY":3,"AENDT":null,"AENDY":null,"AESEV":"MODERATE","AESEVN":2,"AESER":"N","AESERF":"N","AEACN":"","AEACNN":null,"AEREL":"PROBABLE","AEOUT":"NOT RECOVERED/NOT RESOLVED","AESCONG":"N","AESDISAB":"N","AESDTH":"N","AESDTHFL":"N","AESHOSP":"N","AESLIFE":"N","AESOD":"N","TRTEMFL":"Y","DERM_FL":"N","TRT01A":"Xanomeline High Dose","TRT01AN":3,"SAFFL":"Y","ITTFL":"Y","SITEID":"701","AGE":67,"SEX":"M","RACE":"WHITE","ARMCD":"Xan_Hi","TRTSDT":"2013-07-31","TRTEDT":"2013-08-05"},{"STUDYID":"CDISCPILOT01","USUBJID":"01-701-1360","DOMAIN":"ADAE","AESEQ":2,"AETERM":"APPLICATION SITE PRURITUS","AELLT":"APPLICATION SITE ITCHING","AELLTCD":null,"AEDECOD":"APPLICATION SITE PRURITUS","AEPTCD":null,"AEHLT":"HLT_0317","AEHLTCD":null,"AEHLGT":"HLGT_0338","AEHLGTCD":null,"AEBODSYS":"GENERAL DISORDERS AND ADMINISTRATION SITE CONDITIONS","AEBDSYCD":null,"AESOC":"GENERAL DISORDERS AND ADMINISTRATION SITE CONDITIONS","AESOCCD":null,"ASTDT":"2013-08-02","ASTDY":3,"AENDT":null,"AENDY":null,"AESEV":"MODERATE","AESEVN":2,"AESER":"N","AESERF":"N","AEACN":"","AEACNN":null,"AEREL":"PROBABLE","AEOUT":"NOT RECOVERED/NOT RESOLVED","AESCONG":"N","AESDISAB":"N","AESDTH":"N","AESDTHFL":"N","AESHOSP":"N","AESLIFE":"N","AESOD":"N","TRTEMFL":"Y","DERM_FL":"N","TRT01A":"Xanomeline High Dose","TRT01AN":3,"SAFFL":"Y","ITTFL":"Y","SITEID":"701","AGE":67,"SEX":"M","RACE":"WHITE","ARMCD":"Xan_Hi","TRTSDT":"2013-07-31","TRTEDT":"2013-08-05"},{"STUDYID":"CDISCPILOT01","USUBJID":"01-701-1360","DOMAIN":"ADAE","AESEQ":3,"AETERM":"APPLICATION SITE VESICLES","AELLT":"APPLICATION SITE BLISTER","AELLTCD":null,"AEDECOD":"APPLICATION SITE VESICLES","AEPTCD":null,"AEHLT":"HLT_0180","AEHLTCD":null,"AEHLGT":"HLGT_0576","AEHLGTCD":null,"AEBODSYS":"GENERAL DISORDERS AND ADMINISTRATION SITE CONDITIONS","AEBDSYCD":null,"AESOC":"GENERAL DISORDERS AND ADMINISTRATION SITE CONDITIONS","AESOCCD":null,"ASTDT":"2013-08-05","ASTDY":6,"AENDT":null,"AENDY":null,"AESEV":"MODERATE","AESEVN":2,"AESER":"N","AESERF":"N","AEACN":"","AEACNN":null,"AEREL":"PROBABLE","AEOUT":"NOT RECOVERED/NOT RESOLVED","AESCONG":"N","AESDISAB":"N","AESDTH":"N","AESDTHFL":"N","AESHOSP":"N","AESLIFE":"N","AESOD":"N","TRTEMFL":"Y","DERM_FL":"N","TRT01A":"Xanomeline High Dose","TRT01AN":3,"SAFFL":"Y","ITTFL":"Y","SITEID":"701","AGE":67,"SEX":"M","RACE":"WHITE","ARMCD":"Xan_Hi","TRTSDT":"2013-07-31","TRTEDT":"2013-08-05"},{"STUDYID":"CDISCPILOT01","USUBJID":"01-701-1363","DOMAIN":"ADAE","AESEQ":1,"AETERM":"NAUSEA","AELLT":"NAUSEA","AELLTCD":null,"AEDECOD":"NAUSEA","AEPTCD":null,"AEHLT":"HLT_0742","AEHLTCD":null,"AEHLGT":"HLGT_0326","AEHLGTCD":null,"AEBODSYS":"GASTROINTESTINAL DISORDERS","AEBDSYCD":null,"AESOC":"GASTROINTESTINAL DISORDERS","AESOCCD":null,"ASTDT":"2013-06-14","ASTDY":16,"AENDT":"2013-06-15","AENDY":17,"AESEV":"MILD","AESEVN":1,"AESER":"N","AESERF":"N","AEACN":"","AEACNN":null,"AEREL":"REMOTE","AEOUT":"RECOVERED/RESOLVED","AESCONG":"N","AESDISAB":"N","AESDTH":"N","AESDTHFL":"N","AESHOSP":"N","AESLIFE":"N","AESOD":"N","TRTEMFL":"Y","DERM_FL":"N","TRT01A":"Placebo","TRT01AN":1,"SAFFL":"Y","ITTFL":"Y","SITEID":"701","AGE":81,"SEX":"F","RACE":"BLACK OR AFRICAN AMERICAN","ARMCD":"Pbo","TRTSDT":"2013-05-30","TRTEDT":"2013-11-27"},{"STUDYID":"CDISCPILOT01","USUBJID":"01-701-1363","DOMAIN":"ADAE","AESEQ":2,"AETERM":"HEADACHE","AELLT":"HEADACHE","AELLTCD":null,"AEDECOD":"HEADACHE","AEPTCD":null,"AEHLT":"HLT_0064","AEHLTCD":null,"AEHLGT":"HLGT_0344","AEHLGTCD":null,"AEBODSYS":"NERVOUS SYSTEM DISORDERS","AEBDSYCD":null,"AESOC":"NERVOUS SYSTEM DISORDERS","AESOCCD":null,"ASTDT":null,"ASTDY":null,"AENDT":null,"AENDY":null,"AESEV":"MODERATE","AESEVN":2,"AESER":"N","AESERF":"N","AEACN":"","AEACNN":null,"AEREL":"POSSIBLE","AEOUT":"NOT RECOVERED/NOT RESOLVED","AESCONG":"N","AESDISAB":"N","AESDTH":"N","AESDTHFL":"N","AESHOSP":"N","AESLIFE":"N","AESOD":"N","TRTEMFL":"N","DERM_FL":"N","TRT01A":"Placebo","TRT01AN":1,"SAFFL":"Y","ITTFL":"Y","SITEID":"701","AGE":81,"SEX":"F","RACE":"BLACK OR AFRICAN AMERICAN","ARMCD":"Pbo","TRTSDT":"2013-05-30","TRTEDT":"2013-11-27"},{"STUDYID":"CDISCPILOT01","USUBJID":"01-701-1363","DOMAIN":"ADAE","AESEQ":3,"AETERM":"APPLICATION SITE PRURITUS","AELLT":"APPLICATION SITE ITCHING","AELLTCD":null,"AEDECOD":"APPLICATION SITE PRURITUS","AEPTCD":null,"AEHLT":"HLT_0317","AEHLTCD":null,"AEHLGT":"HLGT_0338","AEHLGTCD":null,"AEBODSYS":"GENERAL DISORDERS AND ADMINISTRATION SITE CONDITIONS","AEBDSYCD":null,"AESOC":"GENERAL DISORDERS AND ADMINISTRATION SITE CONDITIONS","AESOCCD":null,"ASTDT":"2013-07-16","ASTDY":48,"AENDT":null,"AENDY":null,"AESEV":"MILD","AESEVN":1,"AESER":"N","AESERF":"N","AEACN":"","AEACNN":null,"AEREL":"PROBABLE","AEOUT":"NOT RECOVERED/NOT RESOLVED","AESCONG":"N","AESDISAB":"N","AESDTH":"N","AESDTHFL":"N","AESHOSP":"N","AESLIFE":"N","AESOD":"N","TRTEMFL":"Y","DERM_FL":"N","TRT01A":"Placebo","TRT01AN":1,"SAFFL":"Y","ITTFL":"Y","SITEID":"701","AGE":81,"SEX":"F","RACE":"BLACK OR AFRICAN AMERICAN","ARMCD":"Pbo","TRTSDT":"2013-05-30","TRTEDT":"2013-11-27"},{"STUDYID":"CDISCPILOT01","USUBJID":"01-701-1363","DOMAIN":"ADAE","AESEQ":4,"AETERM":"HEADACHE","AELLT":"HEADACHE","AELLTCD":null,"AEDECOD":"HEADACHE","AEPTCD":null,"AEHLT":"HLT_0064","AEHLTCD":null,"AEHLGT":"HLGT_0344","AEHLGTCD":null,"AEBODSYS":"NERVOUS SYSTEM DISORDERS","AEBDSYCD":null,"AESOC":"NERVOUS SYSTEM DISORDERS","AESOCCD":null,"ASTDT":null,"ASTDY":null,"AENDT":null,"AENDY":null,"AESEV":"MILD","AESEVN":1,"AESER":"N","AESERF":"N","AEACN":"","AEACNN":null,"AEREL":"POSSIBLE","AEOUT":"NOT RECOVERED/NOT RESOLVED","AESCONG":"N","AESDISAB":"N","AESDTH":"N","AESDTHFL":"N","AESHOSP":"N","AESLIFE":"N","AESOD":"N","TRTEMFL":"N","DERM_FL":"N","TRT01A":"Placebo","TRT01AN":1,"SAFFL":"Y","ITTFL":"Y","SITEID":"701","AGE":81,"SEX":"F","RACE":"BLACK OR AFRICAN AMERICAN","ARMCD":"Pbo","TRTSDT":"2013-05-30","TRTEDT":"2013-11-27"},{"STUDYID":"CDISCPILOT01","USUBJID":"01-701-1363","DOMAIN":"ADAE","AESEQ":5,"AETERM":"BACK PAIN","AELLT":"BACKACHE","AELLTCD":null,"AEDECOD":"BACK PAIN","AEPTCD":null,"AEHLT":"HLT_0115","AEHLTCD":null,"AEHLGT":"HLGT_0508","AEHLGTCD":null,"AEBODSYS":"MUSCULOSKELETAL AND CONNECTIVE TISSUE DISORDERS","AEBDSYCD":null,"AESOC":"MUSCULOSKELETAL AND CONNECTIVE TISSUE DISORDERS","AESOCCD":null,"ASTDT":"2013-10-13","ASTDY":137,"AENDT":"2013-10-15","AENDY":139,"AESEV":"MILD","AESEVN":1,"AESER":"N","AESERF":"N","AEACN":"","AEACNN":null,"AEREL":"NONE","AEOUT":"NOT RECOVERED/NOT RESOLVED","AESCONG":"N","AESDISAB":"N","AESDTH":"N","AESDTHFL":"N","AESHOSP":"N","AESLIFE":"N","AESOD":"N","TRTEMFL":"Y","DERM_FL":"N","TRT01A":"Placebo","TRT01AN":1,"SAFFL":"Y","ITTFL":"Y","SITEID":"701","AGE":81,"SEX":"F","RACE":"BLACK OR AFRICAN AMERICAN","ARMCD":"Pbo","TRTSDT":"2013-05-30","TRTEDT":"2013-11-27"},{"STUDYID":"CDISCPILOT01","USUBJID":"01-701-1363","DOMAIN":"ADAE","AESEQ":6,"AETERM":"BACK PAIN","AELLT":"BACKACHE","AELLTCD":null,"AEDECOD":"BACK PAIN","AEPTCD":null,"AEHLT":"HLT_0115","AEHLTCD":null,"AEHLGT":"HLGT_0508","AEHLGTCD":null,"AEBODSYS":"MUSCULOSKELETAL AND CONNECTIVE TISSUE DISORDERS","AEBDSYCD":null,"AESOC":"MUSCULOSKELETAL AND CONNECTIVE TISSUE DISORDERS","AESOCCD":null,"ASTDT":"2013-10-13","ASTDY":137,"AENDT":"2013-10-15","AENDY":139,"AESEV":"MILD","AESEVN":1,"AESER":"N","AESERF":"N","AEACN":"","AEACNN":null,"AEREL":"NONE","AEOUT":"RECOVERED/RESOLVED","AESCONG":"N","AESDISAB":"N","AESDTH":"N","AESDTHFL":"N","AESHOSP":"N","AESLIFE":"N","AESOD":"N","TRTEMFL":"Y","DERM_FL":"N","TRT01A":"Placebo","TRT01AN":1,"SAFFL":"Y","ITTFL":"Y","SITEID":"701","AGE":81,"SEX":"F","RACE":"BLACK OR AFRICAN AMERICAN","ARMCD":"Pbo","TRTSDT":"2013-05-30","TRTEDT":"2013-11-27"},{"STUDYID":"CDISCPILOT01","USUBJID":"01-701-1383","DOMAIN":"ADAE","AESEQ":1,"AETERM":"APPLICATION SITE PRURITUS","AELLT":"APPLICATION SITE ITCHING","AELLTCD":null,"AEDECOD":"APPLICATION SITE PRURITUS","AEPTCD":null,"AEHLT":"HLT_0317","AEHLTCD":null,"AEHLGT":"HLGT_0338","AEHLGTCD":null,"AEBODSYS":"GENERAL DISORDERS AND ADMINISTRATION SITE CONDITIONS","AEBDSYCD":null,"AESOC":"GENERAL DISORDERS AND ADMINISTRATION SITE CONDITIONS","AESOCCD":null,"ASTDT":"2013-02-07","ASTDY":4,"AENDT":"2013-02-07","AENDY":4,"AESEV":"MILD","AESEVN":1,"AESER":"N","AESERF":"N","AEACN":"","AEACNN":null,"AEREL":"PROBABLE","AEOUT":"RECOVERED/RESOLVED","AESCONG":"N","AESDISAB":"N","AESDTH":"N","AESDTHFL":"N","AESHOSP":"N","AESLIFE":"N","AESOD":"N","TRTEMFL":"Y","DERM_FL":"N","TRT01A":"Xanomeline High Dose","TRT01AN":3,"SAFFL":"Y","ITTFL":"Y","SITEID":"701","AGE":72,"SEX":"F","RACE":"WHITE","ARMCD":"Xan_Hi","TRTSDT":"2013-02-04","TRTEDT":"2013-08-06"},{"STUDYID":"CDISCPILOT01","USUBJID":"01-701-1383","DOMAIN":"ADAE","AESEQ":2,"AETERM":"APPLICATION SITE PAIN","AELLT":"APPLICATION SITE PAIN","AELLTCD":null,"AEDECOD":"APPLICATION SITE PAIN","AEPTCD":null,"AEHLT":"HLT_0342","AEHLTCD":null,"AEHLGT":"HLGT_0085","AEHLGTCD":null,"AEBODSYS":"GENERAL DISORDERS AND ADMINISTRATION SITE CONDITIONS","AEBDSYCD":null,"AESOC":"GENERAL DISORDERS AND ADMINISTRATION SITE CONDITIONS","AESOCCD":null,"ASTDT":"2013-02-07","ASTDY":4,"AENDT":"2013-02-07","AENDY":4,"AESEV":"MILD","AESEVN":1,"AESER":"N","AESERF":"N","AEACN":"","AEACNN":null,"AEREL":"PROBABLE","AEOUT":"RECOVERED/RESOLVED","AESCONG":"N","AESDISAB":"N","AESDTH":"N","AESDTHFL":"N","AESHOSP":"N","AESLIFE":"N","AESOD":"N","TRTEMFL":"Y","DERM_FL":"N","TRT01A":"Xanomeline High Dose","TRT01AN":3,"SAFFL":"Y","ITTFL":"Y","SITEID":"701","AGE":72,"SEX":"F","RACE":"WHITE","ARMCD":"Xan_Hi","TRTSDT":"2013-02-04","TRTEDT":"2013-08-06"},{"STUDYID":"CDISCPILOT01","USUBJID":"01-701-1383","DOMAIN":"ADAE","AESEQ":3,"AETERM":"APPLICATION SITE ERYTHEMA","AELLT":"APPLICATION SITE ERYTHEMA","AELLTCD":null,"AEDECOD":"APPLICATION SITE ERYTHEMA","AEPTCD":null,"AEHLT":"HLT_0617","AEHLTCD":null,"AEHLGT":"HLGT_0152","AEHLGTCD":null,"AEBODSYS":"GENERAL DISORDERS AND ADMINISTRATION SITE CONDITIONS","AEBDSYCD":null,"AESOC":"GENERAL DISORDERS AND ADMINISTRATION SITE CONDITIONS","AESOCCD":null,"ASTDT":"2013-03-23","ASTDY":48,"AENDT":"2013-03-26","AENDY":51,"AESEV":"MILD","AESEVN":1,"AESER":"N","AESERF":"N","AEACN":"","AEACNN":null,"AEREL":"POSSIBLE","AEOUT":"RECOVERED/RESOLVED","AESCONG":"N","AESDISAB":"N","AESDTH":"N","AESDTHFL":"N","AESHOSP":"N","AESLIFE":"N","AESOD":"N","TRTEMFL":"Y","DERM_FL":"N","TRT01A":"Xanomeline High Dose","TRT01AN":3,"SAFFL":"Y","ITTFL":"Y","SITEID":"701","AGE":72,"SEX":"F","RACE":"WHITE","ARMCD":"Xan_Hi","TRTSDT":"2013-02-04","TRTEDT":"2013-08-06"},{"STUDYID":"CDISCPILOT01","USUBJID":"01-701-1383","DOMAIN":"ADAE","AESEQ":4,"AETERM":"APPLICATION SITE PRURITUS","AELLT":"APPLICATION SITE ITCHING","AELLTCD":null,"AEDECOD":"APPLICATION SITE PRURITUS","AEPTCD":null,"AEHLT":"HLT_0317","AEHLTCD":null,"AEHLGT":"HLGT_0338","AEHLGTCD":null,"AEBODSYS":"GENERAL DISORDERS AND ADMINISTRATION SITE CONDITIONS","AEBDSYCD":null,"AESOC":"GENERAL DISORDERS AND ADMINISTRATION SITE CONDITIONS","AESOCCD":null,"ASTDT":"2013-03-23","ASTDY":48,"AENDT":null,"AENDY":null,"AESEV":"MILD","AESEVN":1,"AESER":"N","AESERF":"N","AEACN":"","AEACNN":null,"AEREL":"POSSIBLE","AEOUT":"NOT RECOVERED/NOT RESOLVED","AESCONG":"N","AESDISAB":"N","AESDTH":"N","AESDTHFL":"N","AESHOSP":"N","AESLIFE":"N","AESOD":"N","TRTEMFL":"Y","DERM_FL":"N","TRT01A":"Xanomeline High Dose","TRT01AN":3,"SAFFL":"Y","ITTFL":"Y","SITEID":"701","AGE":72,"SEX":"F","RACE":"WHITE","ARMCD":"Xan_Hi","TRTSDT":"2013-02-04","TRTEDT":"2013-08-06"},{"STUDYID":"CDISCPILOT01","USUBJID":"01-701-1383","DOMAIN":"ADAE","AESEQ":5,"AETERM":"APPLICATION SITE ERYTHEMA","AELLT":"APPLICATION SITE ERYTHEMA","AELLTCD":null,"AEDECOD":"APPLICATION SITE ERYTHEMA","AEPTCD":null,"AEHLT":"HLT_0617","AEHLTCD":null,"AEHLGT":"HLGT_0152","AEHLGTCD":null,"AEBODSYS":"GENERAL DISORDERS AND ADMINISTRATION SITE CONDITIONS","AEBDSYCD":null,"AESOC":"GENERAL DISORDERS AND ADMINISTRATION SITE CONDITIONS","AESOCCD":null,"ASTDT":"2013-04-12","ASTDY":68,"AENDT":null,"AENDY":null,"AESEV":"MILD","AESEVN":1,"AESER":"N","AESERF":"N","AEACN":"","AEACNN":null,"AEREL":"POSSIBLE","AEOUT":"NOT RECOVERED/NOT RESOLVED","AESCONG":"N","AESDISAB":"N","AESDTH":"N","AESDTHFL":"N","AESHOSP":"N","AESLIFE":"N","AESOD":"N","TRTEMFL":"Y","DERM_FL":"N","TRT01A":"Xanomeline High Dose","TRT01AN":3,"SAFFL":"Y","ITTFL":"Y","SITEID":"701","AGE":72,"SEX":"F","RACE":"WHITE","ARMCD":"Xan_Hi","TRTSDT":"2013-02-04","TRTEDT":"2013-08-06"},{"STUDYID":"CDISCPILOT01","USUBJID":"01-701-1383","DOMAIN":"ADAE","AESEQ":6,"AETERM":"APPLICATION SITE IRRITATION","AELLT":"APPLICATION SITE BURNING","AELLTCD":null,"AEDECOD":"APPLICATION SITE IRRITATION","AEPTCD":null,"AEHLT":"HLT_0061","AEHLTCD":null,"AEHLGT":"HLGT_0346","AEHLGTCD":null,"AEBODSYS":"GENERAL DISORDERS AND ADMINISTRATION SITE CONDITIONS","AEBDSYCD":null,"AESOC":"GENERAL DISORDERS AND ADMINISTRATION SITE CONDITIONS","AESOCCD":null,"ASTDT":"2013-04-12","ASTDY":68,"AENDT":null,"AENDY":null,"AESEV":"MILD","AESEVN":1,"AESER":"N","AESERF":"N","AEACN":"","AEACNN":null,"AEREL":"POSSIBLE","AEOUT":"NOT RECOVERED/NOT RESOLVED","AESCONG":"N","AESDISAB":"N","AESDTH":"N","AESDTHFL":"N","AESHOSP":"N","AESLIFE":"N","AESOD":"N","TRTEMFL":"Y","DERM_FL":"N","TRT01A":"Xanomeline High Dose","TRT01AN":3,"SAFFL":"Y","ITTFL":"Y","SITEID":"701","AGE":72,"SEX":"F","RACE":"WHITE","ARMCD":"Xan_Hi","TRTSDT":"2013-02-04","TRTEDT":"2013-08-06"},{"STUDYID":"CDISCPILOT01","USUBJID":"01-701-1383","DOMAIN":"ADAE","AESEQ":7,"AETERM":"APPLICATION SITE PRURITUS","AELLT":"APPLICATION SITE ITCHING","AELLTCD":null,"AEDECOD":"APPLICATION SITE PRURITUS","AEPTCD":null,"AEHLT":"HLT_0317","AEHLTCD":null,"AEHLGT":"HLGT_0338","AEHLGTCD":null,"AEBODSYS":"GENERAL DISORDERS AND ADMINISTRATION SITE CONDITIONS","AEBDSYCD":null,"AESOC":"GENERAL DISORDERS AND ADMINISTRATION SITE CONDITIONS","AESOCCD":null,"ASTDT":"2013-03-23","ASTDY":48,"AENDT":null,"AENDY":null,"AESEV":"MODERATE","AESEVN":2,"AESER":"N","AESERF":"N","AEACN":"","AEACNN":null,"AEREL":"POSSIBLE","AEOUT":"NOT RECOVERED/NOT RESOLVED","AESCONG":"N","AESDISAB":"N","AESDTH":"N","AESDTHFL":"N","AESHOSP":"N","AESLIFE":"N","AESOD":"N","TRTEMFL":"Y","DERM_FL":"N","TRT01A":"Xanomeline High Dose","TRT01AN":3,"SAFFL":"Y","ITTFL":"Y","SITEID":"701","AGE":72,"SEX":"F","RACE":"WHITE","ARMCD":"Xan_Hi","TRTSDT":"2013-02-04","TRTEDT":"2013-08-06"},{"STUDYID":"CDISCPILOT01","USUBJID":"01-701-1383","DOMAIN":"ADAE","AESEQ":8,"AETERM":"APPLICATION SITE IRRITATION","AELLT":"APPLICATION SITE BURNING","AELLTCD":null,"AEDECOD":"APPLICATION SITE IRRITATION","AEPTCD":null,"AEHLT":"HLT_0061","AEHLTCD":null,"AEHLGT":"HLGT_0346","AEHLGTCD":null,"AEBODSYS":"GENERAL DISORDERS AND ADMINISTRATION SITE CONDITIONS","AEBDSYCD":null,"AESOC":"GENERAL DISORDERS AND ADMINISTRATION SITE CONDITIONS","AESOCCD":null,"ASTDT":"2013-04-12","ASTDY":68,"AENDT":null,"AENDY":null,"AESEV":"MODERATE","AESEVN":2,"AESER":"N","AESERF":"N","AEACN":"","AEACNN":null,"AEREL":"POSSIBLE","AEOUT":"NOT RECOVERED/NOT RESOLVED","AESCONG":"N","AESDISAB":"N","AESDTH":"N","AESDTHFL":"N","AESHOSP":"N","AESLIFE":"N","AESOD":"N","TRTEMFL":"Y","DERM_FL":"N","TRT01A":"Xanomeline High Dose","TRT01AN":3,"SAFFL":"Y","ITTFL":"Y","SITEID":"701","AGE":72,"SEX":"F","RACE":"WHITE","ARMCD":"Xan_Hi","TRTSDT":"2013-02-04","TRTEDT":"2013-08-06"},{"STUDYID":"CDISCPILOT01","USUBJID":"01-701-1383","DOMAIN":"ADAE","AESEQ":9,"AETERM":"APPLICATION SITE VESICLES","AELLT":"APPLICATION SITE BLISTER","AELLTCD":null,"AEDECOD":"APPLICATION SITE VESICLES","AEPTCD":null,"AEHLT":"HLT_0180","AEHLTCD":null,"AEHLGT":"HLGT_0576","AEHLGTCD":null,"AEBODSYS":"GENERAL DISORDERS AND ADMINISTRATION SITE CONDITIONS","AEBDSYCD":null,"AESOC":"GENERAL DISORDERS AND ADMINISTRATION SITE CONDITIONS","AESOCCD":null,"ASTDT":"2013-05-07","ASTDY":93,"AENDT":"2013-05-24","AENDY":110,"AESEV":"MILD","AESEVN":1,"AESER":"N","AESERF":"N","AEACN":"","AEACNN":null,"AEREL":"POSSIBLE","AEOUT":"RECOVERED/RESOLVED","AESCONG":"N","AESDISAB":"N","AESDTH":"N","AESDTHFL":"N","AESHOSP":"N","AESLIFE":"N","AESOD":"N","TRTEMFL":"Y","DERM_FL":"N","TRT01A":"Xanomeline High Dose","TRT01AN":3,"SAFFL":"Y","ITTFL":"Y","SITEID":"701","AGE":72,"SEX":"F","RACE":"WHITE","ARMCD":"Xan_Hi","TRTSDT":"2013-02-04","TRTEDT":"2013-08-06"},{"STUDYID":"CDISCPILOT01","USUBJID":"01-701-1383","DOMAIN":"ADAE","AESEQ":10,"AETERM":"CHEST DISCOMFORT","AELLT":"CHEST PRESSURE","AELLTCD":null,"AEDECOD":"CHEST DISCOMFORT","AEPTCD":null,"AEHLT":"HLT_0593","AEHLTCD":null,"AEHLGT":"HLGT_0441","AEHLGTCD":null,"AEBODSYS":"GENERAL DISORDERS AND ADMINISTRATION SITE CONDITIONS","AEBDSYCD":null,"AESOC":"GENERAL DISORDERS AND ADMINISTRATION SITE CONDITIONS","AESOCCD":null,"ASTDT":"2013-06-24","ASTDY":141,"AENDT":"2013-06-24","AENDY":141,"AESEV":"MILD","AESEVN":1,"AESER":"N","AESERF":"N","AEACN":"","AEACNN":null,"AEREL":"NONE","AEOUT":"RECOVERED/RESOLVED","AESCONG":"N","AESDISAB":"N","AESDTH":"N","AESDTHFL":"N","AESHOSP":"N","AESLIFE":"N","AESOD":"N","TRTEMFL":"Y","DERM_FL":"N","TRT01A":"Xanomeline High Dose","TRT01AN":3,"SAFFL":"Y","ITTFL":"Y","SITEID":"701","AGE":72,"SEX":"F","RACE":"WHITE","ARMCD":"Xan_Hi","TRTSDT":"2013-02-04","TRTEDT":"2013-08-06"},{"STUDYID":"CDISCPILOT01","USUBJID":"01-701-1383","DOMAIN":"ADAE","AESEQ":11,"AETERM":"HEADACHE","AELLT":"FULLNESS HEAD","AELLTCD":null,"AEDECOD":"HEADACHE","AEPTCD":null,"AEHLT":"HLT_0064","AEHLTCD":null,"AEHLGT":"HLGT_0344","AEHLGTCD":null,"AEBODSYS":"NERVOUS SYSTEM DISORDERS","AEBDSYCD":null,"AESOC":"NERVOUS SYSTEM DISORDERS","AESOCCD":null,"ASTDT":"2013-06-24","ASTDY":141,"AENDT":"2013-06-24","AENDY":141,"AESEV":"MILD","AESEVN":1,"AESER":"N","AESERF":"N","AEACN":"","AEACNN":null,"AEREL":"NONE","AEOUT":"RECOVERED/RESOLVED","AESCONG":"N","AESDISAB":"N","AESDTH":"N","AESDTHFL":"N","AESHOSP":"N","AESLIFE":"N","AESOD":"N","TRTEMFL":"Y","DERM_FL":"N","TRT01A":"Xanomeline High Dose","TRT01AN":3,"SAFFL":"Y","ITTFL":"Y","SITEID":"701","AGE":72,"SEX":"F","RACE":"WHITE","ARMCD":"Xan_Hi","TRTSDT":"2013-02-04","TRTEDT":"2013-08-06"},{"STUDYID":"CDISCPILOT01","USUBJID":"01-701-1383","DOMAIN":"ADAE","AESEQ":12,"AETERM":"COUGH","AELLT":"COUGH","AELLTCD":null,"AEDECOD":"COUGH","AEPTCD":null,"AEHLT":"HLT_0701","AEHLTCD":null,"AEHLGT":"HLGT_0280","AEHLGTCD":null,"AEBODSYS":"RESPIRATORY, THORACIC AND MEDIASTINAL DISORDERS","AEBDSYCD":null,"AESOC":"RESPIRATORY, THORACIC AND MEDIASTINAL DISORDERS","AESOCCD":null,"ASTDT":"2013-07-17","ASTDY":164,"AENDT":"2013-07-26","AENDY":173,"AESEV":"MODERATE","AESEVN":2,"AESER":"N","AESERF":"N","AEACN":"","AEACNN":null,"AEREL":"NONE","AEOUT":"RECOVERED/RESOLVED","AESCONG":"N","AESDISAB":"N","AESDTH":"N","AESDTHFL":"N","AESHOSP":"N","AESLIFE":"N","AESOD":"N","TRTEMFL":"Y","DERM_FL":"N","TRT01A":"Xanomeline High Dose","TRT01AN":3,"SAFFL":"Y","ITTFL":"Y","SITEID":"701","AGE":72,"SEX":"F","RACE":"WHITE","ARMCD":"Xan_Hi","TRTSDT":"2013-02-04","TRTEDT":"2013-08-06"},{"STUDYID":"CDISCPILOT01","USUBJID":"01-701-1387","DOMAIN":"ADAE","AESEQ":1,"AETERM":"DIARRHOEA","AELLT":"DIARRHEA","AELLTCD":null,"AEDECOD":"DIARRHOEA","AEPTCD":null,"AEHLT":"HLT_0148","AEHLTCD":null,"AEHLGT":"HLGT_0588","AEHLGTCD":null,"AEBODSYS":"GASTROINTESTINAL DISORDERS","AEBDSYCD":null,"AESOC":"GASTROINTESTINAL DISORDERS","AESOCCD":null,"ASTDT":"2014-03-18","ASTDY":7,"AENDT":"2014-03-18","AENDY":7,"AESEV":"MILD","AESEVN":1,"AESER":"N","AESERF":"N","AEACN":"","AEACNN":null,"AEREL":"REMOTE","AEOUT":"RECOVERED/RESOLVED","AESCONG":"N","AESDISAB":"N","AESDTH":"N","AESDTHFL":"N","AESHOSP":"N","AESLIFE":"N","AESOD":"N","TRTEMFL":"Y","DERM_FL":"N","TRT01A":"Placebo","TRT01AN":1,"SAFFL":"Y","ITTFL":"Y","SITEID":"701","AGE":87,"SEX":"F","RACE":"WHITE","ARMCD":"Pbo","TRTSDT":"2014-03-12","TRTEDT":"2014-03-25"},{"STUDYID":"CDISCPILOT01","USUBJID":"01-701-1387","DOMAIN":"ADAE","AESEQ":2,"AETERM":"HYPERHIDROSIS","AELLT":"SWEATING","AELLTCD":null,"AEDECOD":"HYPERHIDROSIS","AEPTCD":null,"AEHLT":"HLT_0587","AEHLTCD":null,"AEHLGT":"HLGT_0005","AEHLGTCD":null,"AEBODSYS":"SKIN AND SUBCUTANEOUS TISSUE DISORDERS","AEBDSYCD":null,"AESOC":"SKIN AND SUBCUTANEOUS TISSUE DISORDERS","AESOCCD":null,"ASTDT":"2014-03-18","ASTDY":7,"AENDT":"2014-03-18","AENDY":7,"AESEV":"MILD","AESEVN":1,"AESER":"N","AESERF":"N","AEACN":"","AEACNN":null,"AEREL":"REMOTE","AEOUT":"RECOVERED/RESOLVED","AESCONG":"N","AESDISAB":"N","AESDTH":"N","AESDTHFL":"N","AESHOSP":"N","AESLIFE":"N","AESOD":"N","TRTEMFL":"Y","DERM_FL":"Y","TRT01A":"Placebo","TRT01AN":1,"SAFFL":"Y","ITTFL":"Y","SITEID":"701","AGE":87,"SEX":"F","RACE":"WHITE","ARMCD":"Pbo","TRTSDT":"2014-03-12","TRTEDT":"2014-03-25"},{"STUDYID":"CDISCPILOT01","USUBJID":"01-701-1392","DOMAIN":"ADAE","AESEQ":1,"AETERM":"UPPER RESPIRATORY TRACT INFECTION","AELLT":"UPPER RESPIRATORY INFECTION","AELLTCD":null,"AEDECOD":"UPPER RESPIRATORY TRACT INFECTION","AEPTCD":null,"AEHLT":"HLT_0520","AEHLTCD":null,"AEHLGT":"HLGT_0489","AEHLGTCD":null,"AEBODSYS":"INFECTIONS AND INFESTATIONS","AEBDSYCD":null,"AESOC":"INFECTIONS AND INFESTATIONS","AESOCCD":null,"ASTDT":"2013-03-16","ASTDY":140,"AENDT":"2013-03-21","AENDY":145,"AESEV":"MILD","AESEVN":1,"AESER":"N","AESERF":"N","AEACN":"","AEACNN":null,"AEREL":"REMOTE","AEOUT":"NOT RECOVERED/NOT RESOLVED","AESCONG":"N","AESDISAB":"N","AESDTH":"N","AESDTHFL":"N","AESHOSP":"N","AESLIFE":"N","AESOD":"N","TRTEMFL":"Y","DERM_FL":"N","TRT01A":"Placebo","TRT01AN":1,"SAFFL":"Y","ITTFL":"Y","SITEID":"701","AGE":78,"SEX":"M","RACE":"WHITE","ARMCD":"Pbo","TRTSDT":"2012-10-28","TRTEDT":"2013-04-28"},{"STUDYID":"CDISCPILOT01","USUBJID":"01-701-1392","DOMAIN":"ADAE","AESEQ":2,"AETERM":"UPPER RESPIRATORY TRACT INFECTION","AELLT":"UPPER RESPIRATORY INFECTION","AELLTCD":null,"AEDECOD":"UPPER RESPIRATORY TRACT INFECTION","AEPTCD":null,"AEHLT":"HLT_0520","AEHLTCD":null,"AEHLGT":"HLGT_0489","AEHLGTCD":null,"AEBODSYS":"INFECTIONS AND INFESTATIONS","AEBDSYCD":null,"AESOC":"INFECTIONS AND INFESTATIONS","AESOCCD":null,"ASTDT":"2013-03-16","ASTDY":140,"AENDT":"2013-03-21","AENDY":145,"AESEV":"MILD","AESEVN":1,"AESER":"N","AESERF":"N","AEACN":"","AEACNN":null,"AEREL":"REMOTE","AEOUT":"RECOVERED/RESOLVED","AESCONG":"N","AESDISAB":"N","AESDTH":"N","AESDTHFL":"N","AESHOSP":"N","AESLIFE":"N","AESOD":"N","TRTEMFL":"Y","DERM_FL":"N","TRT01A":"Placebo","TRT01AN":1,"SAFFL":"Y","ITTFL":"Y","SITEID":"701","AGE":78,"SEX":"M","RACE":"WHITE","ARMCD":"Pbo","TRTSDT":"2012-10-28","TRTEDT":"2013-04-28"},{"STUDYID":"CDISCPILOT01","USUBJID":"01-701-1415","DOMAIN":"ADAE","AESEQ":1,"AETERM":"UPPER RESPIRATORY TRACT INFECTION","AELLT":"UPPER RESPIRATORY INFECTION","AELLTCD":null,"AEDECOD":"UPPER RESPIRATORY TRACT INFECTION","AEPTCD":null,"AEHLT":"HLT_0520","AEHLTCD":null,"AEHLGT":"HLGT_0489","AEHLGTCD":null,"AEBODSYS":"INFECTIONS AND INFESTATIONS","AEBDSYCD":null,"AESOC":"INFECTIONS AND INFESTATIONS","AESOCCD":null,"ASTDT":"2013-10-21","