[{"STUDYID":"CDISCPILOT01","USUBJID":"01-701-1015","DOMAIN":"ADEX","CUMEXDOS":0,"AVGDOSE":0,"TOTEXDUR":182,"TRT01A":"Placebo","TRT01AN":1,"SAFFL":"Y","ITTFL":"Y","COMPFL":"Y","SITEID":"701","AGE":63,"SEX":"F","RACE":"WHITE","ARMCD":"Pbo","TRTSDT":"2014-01-02","TRTEDT":"2014-07-02","TRTDUR":182},{"STUDYID":"CDISCPILOT01","USUBJID":"01-701-1023","DOMAIN":"ADEX","CUMEXDOS":0,"AVGDOSE":0,"TOTEXDUR":28,"TRT01A":"Placebo","TRT01AN":1,"SAFFL":"Y","ITTFL":"Y","COMPFL":"N","SITEID":"701","AGE":64,"SEX":"M","RACE":"WHITE","ARMCD":"Pbo","TRTSDT":"2012-08-05","TRTEDT":"2012-09-01","TRTDUR":28},{"STUDYID":"CDISCPILOT01","USUBJID":"01-701-1028","DOMAIN":"ADEX","CUMEXDOS":13986,"AVGDOSE":77.7,"TOTEXDUR":180,"TRT01A":"Xanomeline High Dose","TRT01AN":3,"SAFFL":"Y","ITTFL":"Y","COMPFL":"Y","SITEID":"701","AGE":71,"SEX":"M","RACE":"WHITE","ARMCD":"Xan_Hi","TRTSDT":"2013-07-19","TRTEDT":"2014-01-14","TRTDUR":180},{"STUDYID":"CDISCPILOT01","USUBJID":"01-701-1033","DOMAIN":"ADEX","CUMEXDOS":756,"AVGDOSE":54,"TOTEXDUR":14,"TRT01A":"Xanomeline Low Dose","TRT01AN":2,"SAFFL":"Y","ITTFL":"Y","COMPFL":"N","SITEID":"701","AGE":74,"SEX":"M","RACE":"WHITE","ARMCD":"Xan_Lo","TRTSDT":"2014-03-18","TRTEDT":"2014-03-31","TRTDUR":14},{"STUDYID":"CDISCPILOT01","USUBJID":"01-701-1034","DOMAIN":"ADEX","CUMEXDOS":14067,"AVGDOSE":76.8689,"TOTEXDUR":183,"TRT01A":"Xanomeline High Dose","TRT01AN":3,"SAFFL":"Y","ITTFL":"Y","COMPFL":"Y","SITEID":"701","AGE":77,"SEX":"F","RACE":"WHITE","ARMCD":"Xan_Hi","TRTSDT":"2014-07-01","TRTEDT":"2014-12-30","TRTDUR":183},{"STUDYID":"CDISCPILOT01","USUBJID":"01-701-1047","DOMAIN":"ADEX","CUMEXDOS":0,"AVGDOSE":0,"TOTEXDUR":26,"TRT01A":"Placebo","TRT01AN":1,"SAFFL":"Y","ITTFL":"Y","COMPFL":"N","SITEID":"701","AGE":85,"SEX":"F","RACE":"WHITE","ARMCD":"Pbo","TRTSDT":"2013-02-12","TRTEDT":"2013-03-09","TRTDUR":26},{"STUDYID":"CDISCPILOT01","USUBJID":"01-701-1097","DOMAIN":"ADEX","CUMEXDOS":10260,"AVGDOSE":54,"TOTEXDUR":190,"TRT01A":"Xanomeline Low Dose","TRT01AN":2,"SAFFL":"Y","ITTFL":"Y","COMPFL":"Y","SITEID":"701","AGE":68,"SEX":"M","RACE":"WHITE","ARMCD":"Xan_Lo","TRTSDT":"2014-01-01","TRTEDT":"2014-07-09","TRTDUR":190},{"STUDYID":"CDISCPILOT01","USUBJID":"01-701-1111","DOMAIN":"ADEX","CUMEXDOS":540,"AVGDOSE":54,"TOTEXDUR":10,"TRT01A":"Xanomeline Low Dose","TRT01AN":2,"SAFFL":"Y","ITTFL":"Y","COMPFL":"N","SITEID":"701","AGE":81,"SEX":"F","RACE":"WHITE","ARMCD":"Xan_Lo","TRTSDT":"2012-09-07","TRTEDT":"2012-09-16","TRTDUR":10},{"STUDYID":"CDISCPILOT01","USUBJID":"01-701-1115","DOMAIN":"ADEX","CUMEXDOS":2970,"AVGDOSE":54,"TOTEXDUR":55,"TRT01A":"Xanomeline Low Dose","TRT01AN":2,"SAFFL":"Y","ITTFL":"Y","COMPFL":"N","SITEID":"701","AGE":84,"SEX":"M","RACE":"WHITE","ARMCD":"Xan_Lo","TRTSDT":"2012-11-30","TRTEDT":"2013-01-23","TRTDUR":55},{"STUDYID":"CDISCPILOT01","USUBJID":"01-701-1118","DOMAIN":"ADEX","CUMEXDOS":0,"AVGDOSE":0,"TOTEXDUR":182,"TRT01A":"Placebo","TRT01AN":1,"SAFFL":"Y","ITTFL":"Y","COMPFL":"Y","SITEID":"701","AGE":52,"SEX":"M","RACE":"WHITE","ARMCD":"Pbo","TRTSDT":"2014-03-12","TRTEDT":"2014-09-09","TRTDUR":182},{"STUDYID":"CDISCPILOT01","USUBJID":"01-701-1130","DOMAIN":"ADEX","CUMEXDOS":0,"AVGDOSE":0,"TOTEXDUR":183,"TRT01A":"Placebo","TRT01AN":1,"SAFFL":"Y","ITTFL":"Y","COMPFL":"Y","SITEID":"701","AGE":84,"SEX":"M","RACE":"WHITE","ARMCD":"Pbo","TRTSDT":"2014-02-15","TRTEDT":"2014-08-16","TRTDUR":183},{"STUDYID":"CDISCPILOT01","USUBJID":"01-701-1133","DOMAIN":"ADEX","CUMEXDOS":14121,"AVGDOSE":77.1639,"TOTEXDUR":183,"TRT01A":"Xanomeline High Dose","TRT01AN":3,"SAFFL":"Y","ITTFL":"Y","COMPFL":"Y","SITEID":"701","AGE":81,"SEX":"F","RACE":"WHITE","ARMCD":"Xan_Hi","TRTSDT":"2012-10-28","TRTEDT":"2013-04-28","TRTDUR":183},{"STUDYID":"CDISCPILOT01","USUBJID":"01-701-1146","DOMAIN":"ADEX","CUMEXDOS":2673,"AVGDOSE":70.3421,"TOTEXDUR":38,"TRT01A":"Xanomeline High Dose","TRT01AN":3,"SAFFL":"Y","ITTFL":"Y","COMPFL":"N","SITEID":"701","AGE":75,"SEX":"F","RACE":"WHITE","ARMCD":"Xan_Hi","TRTSDT":"2013-05-20","TRTEDT":"2013-06-26","TRTDUR":38},{"STUDYID":"CDISCPILOT01","USUBJID":"01-701-1148","DOMAIN":"ADEX","CUMEXDOS":14040,"AVGDOSE":77.1429,"TOTEXDUR":182,"TRT01A":"Xanomeline High Dose","TRT01AN":3,"SAFFL":"Y","ITTFL":"Y","COMPFL":"Y","SITEID":"701","AGE":57,"SEX":"M","RACE":"WHITE","ARMCD":"Xan_Hi","TRTSDT":"2013-08-23","TRTEDT":"2014-02-20","TRTDUR":182},{"STUDYID":"CDISCPILOT01","USUBJID":"01-701-1153","DOMAIN":"ADEX","CUMEXDOS":0,"AVGDOSE":0,"TOTEXDUR":175,"TRT01A":"Placebo","TRT01AN":1,"SAFFL":"Y","ITTFL":"Y","COMPFL":"Y","SITEID":"701","AGE":79,"SEX":"F","RACE":"WHITE","ARMCD":"Pbo","TRTSDT":"2013-09-23","TRTEDT":"2014-03-16","TRTDUR":175},{"STUDYID":"CDISCPILOT01","USUBJID":"01-701-1180","DOMAIN":"ADEX","CUMEXDOS":2457,"AVGDOSE":70.2,"TOTEXDUR":35,"TRT01A":"Xanomeline High Dose","TRT01AN":3,"SAFFL":"Y","ITTFL":"Y","COMPFL":"N","SITEID":"701","AGE":56,"SEX":"M","RACE":"WHITE","ARMCD":"Xan_Hi","TRTSDT":"2013-02-12","TRTEDT":"2013-03-18","TRTDUR":35},{"STUDYID":"CDISCPILOT01","USUBJID":"01-701-1181","DOMAIN":"ADEX","CUMEXDOS":270,"AVGDOSE":54,"TOTEXDUR":5,"TRT01A":"Xanomeline High Dose","TRT01AN":3,"SAFFL":"Y","ITTFL":"Y","COMPFL":"N","SITEID":"701","AGE":79,"SEX":"F","RACE":"WHITE","ARMCD":"Xan_Hi","TRTSDT":"2013-12-05","TRTEDT":"2013-12-09","TRTDUR":5},{"STUDYID":"CDISCPILOT01","USUBJID":"01-701-1188","DOMAIN":"ADEX","CUMEXDOS":2052,"AVGDOSE":54,"TOTEXDUR":38,"TRT01A":"Xanomeline Low Dose","TRT01AN":2,"SAFFL":"Y","ITTFL":"Y","COMPFL":"N","SITEID":"701","AGE":71,"SEX":"M","RACE":"WHITE","ARMCD":"Xan_Lo","TRTSDT":"2013-02-15","TRTEDT":"2013-03-24","TRTDUR":38},{"STUDYID":"CDISCPILOT01","USUBJID":"01-701-1192","DOMAIN":"ADEX","CUMEXDOS":9882,"AVGDOSE":54,"TOTEXDUR":183,"TRT01A":"Xanomeline Low Dose","TRT01AN":2,"SAFFL":"Y","ITTFL":"Y","COMPFL":"Y","SITEID":"701","AGE":80,"SEX":"F","RACE":"WHITE","ARMCD":"Xan_Lo","TRTSDT":"2012-07-22","TRTEDT":"2013-01-20","TRTDUR":183},{"STUDYID":"CDISCPILOT01","USUBJID":"01-701-1203","DOMAIN":"ADEX","CUMEXDOS":0,"AVGDOSE":0,"TOTEXDUR":183,"TRT01A":"Placebo","TRT01AN":1,"SAFFL":"Y","ITTFL":"Y","COMPFL":"Y","SITEID":"701","AGE":81,"SEX":"F","RACE":"BLACK OR AFRICAN AMERICAN","ARMCD":"Pbo","TRTSDT":"2013-02-02","TRTEDT":"2013-08-03","TRTDUR":183},{"STUDYID":"CDISCPILOT01","USUBJID":"01-701-1211","DOMAIN":"ADEX","CUMEXDOS":3186,"AVGDOSE":54,"TOTEXDUR":59,"TRT01A":"Xanomeline Low Dose","TRT01AN":2,"SAFFL":"Y","ITTFL":"Y","COMPFL":"N","SITEID":"701","AGE":76,"SEX":"F","RACE":"WHITE","ARMCD":"Xan_Lo","TRTSDT":"2012-11-15","TRTEDT":"2013-01-12","TRTDUR":59},{"STUDYID":"CDISCPILOT01","USUBJID":"01-701-1234","DOMAIN":"ADEX","CUMEXDOS":0,"AVGDOSE":0,"TOTEXDUR":177,"TRT01A":"Placebo","TRT01AN":1,"SAFFL":"Y","ITTFL":"Y","COMPFL":"Y","SITEID":"701","AGE":69,"SEX":"M","RACE":"WHITE","ARMCD":"Pbo","TRTSDT":"2013-03-30","TRTEDT":"2013-09-22","TRTDUR":177},{"STUDYID":"CDISCPILOT01","USUBJID":"01-701-1239","DOMAIN":"ADEX","CUMEXDOS":13905,"AVGDOSE":76.8232,"TOTEXDUR":181,"TRT01A":"Xanomeline High Dose","TRT01AN":3,"SAFFL":"Y","ITTFL":"Y","COMPFL":"Y","SITEID":"701","AGE":56,"SEX":"M","RACE":"WHITE","ARMCD":"Xan_Hi","TRTSDT":"2014-01-11","TRTEDT":"2014-07-10","TRTDUR":181},{"STUDYID":"CDISCPILOT01","USUBJID":"01-701-1275","DOMAIN":"ADEX","CUMEXDOS":8802,"AVGDOSE":77.2105,"TOTEXDUR":114,"TRT01A":"Xanomeline High Dose","TRT01AN":3,"SAFFL":"Y","ITTFL":"Y","COMPFL":"N","SITEID":"701","AGE":61,"SEX":"M","RACE":"AMERICAN INDIAN OR ALASKA NATIVE","ARMCD":"Xan_Hi","TRTSDT":"2014-02-07","TRTEDT":"2014-05-31","TRTDUR":114},{"STUDYID":"CDISCPILOT01","USUBJID":"01-701-1287","DOMAIN":"ADEX","CUMEXDOS":13959,"AVGDOSE":76.2787,"TOTEXDUR":183,"TRT01A":"Xanomeline High Dose","TRT01AN":3,"SAFFL":"Y","ITTFL":"Y","COMPFL":"Y","SITEID":"701","AGE":56,"SEX":"F","RACE":"WHITE","ARMCD":"Xan_Hi","TRTSDT":"2014-01-25","TRTEDT":"2014-07-26","TRTDUR":183},{"STUDYID":"CDISCPILOT01","USUBJID":"01-701-1294","DOMAIN":"ADEX","CUMEXDOS":4482,"AVGDOSE":54,"TOTEXDUR":83,"TRT01A":"Xanomeline Low Dose","TRT01AN":2,"SAFFL":"Y","ITTFL":"Y","COMPFL":"N","SITEID":"701","AGE":67,"SEX":"M","RACE":"WHITE","ARMCD":"Xan_Lo","TRTSDT":"2013-03-24","TRTEDT":"2013-06-14","TRTDUR":83},{"STUDYID":"CDISCPILOT01","USUBJID":"01-701-1302","DOMAIN":"ADEX","CUMEXDOS":5103,"AVGDOSE":73.9565,"TOTEXDUR":69,"TRT01A":"Xanomeline High Dose","TRT01AN":3,"SAFFL":"Y","ITTFL":"Y","COMPFL":"N","SITEID":"701","AGE":61,"SEX":"M","RACE":"WHITE","ARMCD":"Xan_Hi","TRTSDT":"2013-08-29","TRTEDT":"2013-11-05","TRTDUR":69},{"STUDYID":"CDISCPILOT01","USUBJID":"01-701-1317","DOMAIN":"ADEX","CUMEXDOS":9882,"AVGDOSE":54,"TOTEXDUR":183,"TRT01A":"Xanomeline Low Dose","TRT01AN":2,"SAFFL":"Y","ITTFL":"Y","COMPFL":"Y","SITEID":"701","AGE":68,"SEX":"M","RACE":"WHITE","ARMCD":"Xan_Lo","TRTSDT":"2014-05-22","TRTEDT":"2014-11-20","TRTDUR":183},{"STUDYID":"CDISCPILOT01","USUBJID":"01-701-1324","DOMAIN":"ADEX","CUMEXDOS":9882,"AVGDOSE":54,"TOTEXDUR":183,"TRT01A":"Xanomeline Low Dose","TRT01AN":2,"SAFFL":"Y","ITTFL":"Y","COMPFL":"Y","SITEID":"701","AGE":79,"SEX":"M","RACE":"WHITE","ARMCD":"Xan_Lo","TRTSDT":"2012-10-02","TRTEDT":"2013-04-02","TRTDUR":183},{"STUDYID":"CDISCPILOT01","USUBJID":"01-701-1341","DOMAIN":"ADEX","CUMEXDOS":1188,"AVGDOSE":54,"TOTEXDUR":22,"TRT01A":"Xanomeline Low Dose","TRT01AN":2,"SAFFL":"Y","ITTFL":"Y","COMPFL":"N","SITEID":"701","AGE":51,"SEX":"M","RACE":"WHITE","ARMCD":"Xan_Lo","TRTSDT":"2013-01-05","TRTEDT":"2013-01-26","TRTDUR":22},{"STUDYID":"CDISCPILOT01","USUBJID":"01-701-1345","DOMAIN":"ADEX","CUMEXDOS":0,"AVGDOSE":0,"TOTEXDUR":162,"TRT01A":"Placebo","TRT01AN":1,"SAFFL":"Y","ITTFL":"Y","COMPFL":"Y","SITEID":"701","AGE":63,"SEX":"F","RACE":"WHITE","ARMCD":"Pbo","TRTSDT":"2013-10-08","TRTEDT":"2014-03-18","TRTDUR":162},{"STUDYID":"CDISCPILOT01","USUBJID":"01-701-1360","DOMAIN":"ADEX","CUMEXDOS":324,"AVGDOSE":54,"TOTEXDUR":6,"TRT01A":"Xanomeline High Dose","TRT01AN":3,"SAFFL":"Y","ITTFL":"Y","COMPFL":"N","SITEID":"701","AGE":67,"SEX":"M","RACE":"WHITE","ARMCD":"Xan_Hi","TRTSDT":"2013-07-31","TRTEDT":"2013-08-05","TRTDUR":6},{"STUDYID":"CDISCPILOT01","USUBJID":"01-701-1363","DOMAIN":"ADEX","CUMEXDOS":0,"AVGDOSE":0,"TOTEXDUR":182,"TRT01A":"Placebo","TRT01AN":1,"SAFFL":"Y","ITTFL":"Y","COMPFL":"Y","SITEID":"701","AGE":81,"SEX":"F","RACE":"BLACK OR AFRICAN AMERICAN","ARMCD":"Pbo","TRTSDT":"2013-05-30","TRTEDT":"2013-11-27","TRTDUR":182},{"STUDYID":"CDISCPILOT01","USUBJID":"01-701-1383","DOMAIN":"ADEX","CUMEXDOS":14283,"AVGDOSE":77.625,"TOTEXDUR":184,"TRT01A":"Xanomeline High Dose","TRT01AN":3,"SAFFL":"Y","ITTFL":"Y","COMPFL":"Y","SITEID":"701","AGE":72,"SEX":"F","RACE":"WHITE","ARMCD":"Xan_Hi","TRTSDT":"2013-02-04","TRTEDT":"2013-08-06","TRTDUR":184},{"STUDYID":"CDISCPILOT01","USUBJID":"01-701-1387","DOMAIN":"ADEX","CUMEXDOS":0,"AVGDOSE":0,"TOTEXDUR":14,"TRT01A":"Placebo","TRT01AN":1,"SAFFL":"Y","ITTFL":"Y","COMPFL":"N","SITEID":"701","AGE":87,"SEX":"F","RACE":"WHITE","ARMCD":"Pbo","TRTSDT":"2014-03-12","TRTEDT":"2014-03-25","TRTDUR":14},{"STUDYID":"CDISCPILOT01","USUBJID":"01-701-1392","DOMAIN":"ADEX","CUMEXDOS":0,"AVGDOSE":0,"TOTEXDUR":183,"TRT01A":"Placebo","TRT01AN":1,"SAFFL":"Y","ITTFL":"Y","COMPFL":"Y","SITEID":"701","AGE":78,"SEX":"M","RACE":"WHITE","ARMCD":"Pbo","TRTSDT":"2012-10-28","TRTEDT":"2013-04-28","TRTDUR":183},{"STUDYID":"CDISCPILOT01","USUBJID":"01-701-1415","DOMAIN":"ADEX","CUMEXDOS":0,"AVGDOSE":0,"TOTEXDUR":183,"TRT01A":"Placebo","TRT01AN":1,"SAFFL":"Y","ITTFL":"Y","COMPFL":"Y","SITEID":"701","AGE":85,"SEX":"M","RACE":"WHITE","ARMCD":"Pbo","TRTSDT":"2013-09-23","TRTEDT":"2014-03-24","TRTDUR":183},{"STUDYID":"CDISCPILOT01","USUBJID":"01-701-1429","DOMAIN":"ADEX","CUMEXDOS":2322,"AVGDOSE":54,"TOTEXDUR":43,"TRT01A":"Xanomeline Low Dose","TRT01AN":2,"SAFFL":"Y","ITTFL":"Y","COMPFL":"N","SITEID":"701","AGE":84,"SEX":"F","RACE":"WHITE","ARMCD":"Xan_Lo","TRTSDT":"2013-03-19","TRTEDT":"2013-04-30","TRTDUR":43},{"STUDYID":"CDISCPILOT01","USUBJID":"01-701-1440","DOMAIN":"ADEX","CUMEXDOS":0,"AVGDOSE":0,"TOTEXDUR":182,"TRT01A":"Placebo","TRT01AN":1,"SAFFL":"Y","ITTFL":"Y","COMPFL":"Y","SITEID":"701","AGE":70,"SEX":"M","RACE":"WHITE","ARMCD":"Pbo","TRTSDT":"2013-08-08","TRTEDT":"2014-02-05","TRTDUR":182},{"STUDYID":"CDISCPILOT01","USUBJID":"01-701-1442","DOMAIN":"ADEX","CUMEXDOS":9882,"AVGDOSE":54,"TOTEXDUR":183,"TRT01A":"Xanomeline Low Dose","TRT01AN":2,"SAFFL":"Y","ITTFL":"Y","COMPFL":"Y","SITEID":"701","AGE":57,"SEX":"F","RACE":"BLACK OR AFRICAN AMERICAN","ARMCD":"Xan_Lo","TRTSDT":"2013-10-26","TRTEDT":"2014-04-26","TRTDUR":183},{"STUDYID":"CDISCPILOT01","USUBJID":"01-701-1444","DOMAIN":"ADEX","CUMEXDOS":2781,"AVGDOSE":71.3077,"TOTEXDUR":39,"TRT01A":"Xanomeline High Dose","TRT01AN":3,"SAFFL":"Y","ITTFL":"Y","COMPFL":"N","SITEID":"701","AGE":63,"SEX":"M","RACE":"WHITE","ARMCD":"Xan_Hi","TRTSDT":"2013-01-05","TRTEDT":"2013-02-12","TRTDUR":39},{"STUDYID":"CDISCPILOT01","USUBJID":"01-702-1082","DOMAIN":"ADEX","CUMEXDOS":4320,"AVGDOSE":54,"TOTEXDUR":80,"TRT01A":"Xanomeline Low Dose","TRT01AN":2,"SAFFL":"Y","ITTFL":"Y","COMPFL":"N","SITEID":"702","AGE":84,"SEX":"F","RACE":"WHITE","ARMCD":"Xan_Lo","TRTSDT":"2013-07-26","TRTEDT":"2013-10-13","TRTDUR":80},{"STUDYID":"CDISCPILOT01","USUBJID":"01-703-1042","DOMAIN":"ADEX","CUMEXDOS":0,"AVGDOSE":0,"TOTEXDUR":183,"TRT01A":"Placebo","TRT01AN":1,"SAFFL":"Y","ITTFL":"Y","COMPFL":"Y","SITEID":"703","AGE":64,"SEX":"M","RACE":"WHITE","ARMCD":"Pbo","TRTSDT":"2013-03-02","TRTEDT":"2013-08-31","TRTDUR":183},{"STUDYID":"CDISCPILOT01","USUBJID":"01-703-1076","DOMAIN":"ADEX","CUMEXDOS":4590,"AVGDOSE":75.2459,"TOTEXDUR":61,"TRT01A":"Xanomeline High Dose","TRT01AN":3,"SAFFL":"Y","ITTFL":"Y","COMPFL":"N","SITEID":"703","AGE":69,"SEX":"M","RACE":"WHITE","ARMCD":"Xan_Hi","TRTSDT":"2013-10-25","TRTEDT":"2013-12-24","TRTDUR":61},{"STUDYID":"CDISCPILOT01","USUBJID":"01-703-1086","DOMAIN":"ADEX","CUMEXDOS":5076,"AVGDOSE":54,"TOTEXDUR":94,"TRT01A":"Xanomeline Low Dose","TRT01AN":2,"SAFFL":"Y","ITTFL":"Y","COMPFL":"N","SITEID":"703","AGE":71,"SEX":"M","RACE":"WHITE","ARMCD":"Xan_Lo","TRTSDT":"2012-09-02","TRTEDT":"2012-12-04","TRTDUR":94},{"STUDYID":"CDISCPILOT01","USUBJID":"01-703-1096","DOMAIN":"ADEX","CUMEXDOS":0,"AVGDOSE":0,"TOTEXDUR":51,"TRT01A":"Placebo","TRT01AN":1,"SAFFL":"Y","ITTFL":"Y","COMPFL":"N","SITEID":"703","AGE":81,"SEX":"F","RACE":"WHITE","ARMCD":"Pbo","TRTSDT":"2013-01-25","TRTEDT":"2013-03-16","TRTDUR":51},{"STUDYID":"CDISCPILOT01","USUBJID":"01-703-1100","DOMAIN":"ADEX","CUMEXDOS":0,"AVGDOSE":0,"TOTEXDUR":186,"TRT01A":"Placebo","TRT01AN":1,"SAFFL":"Y","ITTFL":"Y","COMPFL":"Y","SITEID":"703","AGE":84,"SEX":"F","RACE":"WHITE","ARMCD":"Pbo","TRTSDT":"2013-03-13","TRTEDT":"2013-09-14","TRTDUR":186},{"STUDYID":"CDISCPILOT01","USUBJID":"01-703-1119","DOMAIN":"ADEX","CUMEXDOS":6156,"AVGDOSE":54,"TOTEXDUR":114,"TRT01A":"Xanomeline Low Dose","TRT01AN":2,"SAFFL":"Y","ITTFL":"Y","COMPFL":"N","SITEID":"703","AGE":81,"SEX":"F","RACE":"WHITE","ARMCD":"Xan_Lo","TRTSDT":"2013-02-20","TRTEDT":"2013-06-13","TRTDUR":114},{"STUDYID":"CDISCPILOT01","USUBJID":"01-703-1175","DOMAIN":"ADEX","CUMEXDOS":0,"AVGDOSE":0,"TOTEXDUR":7,"TRT01A":"Placebo","TRT01AN":1,"SAFFL":"Y","ITTFL":"Y","COMPFL":"N","SITEID":"703","AGE":75,"SEX":"M","RACE":"WHITE","ARMCD":"Pbo","TRTSDT":"2013-12-20","TRTEDT":"2013-12-26","TRTDUR":7},{"STUDYID":"CDISCPILOT01","USUBJID":"01-703-1182","DOMAIN":"ADEX","CUMEXDOS":3024,"AVGDOSE":54,"TOTEXDUR":56,"TRT01A":"Xanomeline Low Dose","TRT01AN":2,"SAFFL":"Y","ITTFL":"Y","COMPFL":"N","SITEID":"703","AGE":84,"SEX":"M","RACE":"WHITE","ARMCD":"Xan_Lo","TRTSDT":"2013-10-17","TRTEDT":"2013-12-11","TRTDUR":56},{"STUDYID":"CDISCPILOT01","USUBJID":"01-703-1197","DOMAIN":"ADEX","CUMEXDOS":756,"AVGDOSE":54,"TOTEXDUR":14,"TRT01A":"Xanomeline Low Dose","TRT01AN":2,"SAFFL":"Y","ITTFL":"Y","COMPFL":"N","SITEID":"703","AGE":76,"SEX":"F","RACE":"BLACK OR AFRICAN AMERICAN","ARMCD":"Xan_Lo","TRTSDT":"2013-06-16","TRTEDT":"2013-06-29","TRTDUR":14},{"STUDYID":"CDISCPILOT01","USUBJID":"01-703-1210","DOMAIN":"ADEX","CUMEXDOS":0,"AVGDOSE":0,"TOTEXDUR":175,"TRT01A":"Placebo","TRT01AN":1,"SAFFL":"Y","ITTFL":"Y","COMPFL":"Y","SITEID":"703","AGE":72,"SEX":"F","RACE":"WHITE","ARMCD":"Pbo","TRTSDT":"2013-03-16","TRTEDT":"2013-09-06","TRTDUR":175},{"STUDYID":"CDISCPILOT01","USUBJID":"01-703-1258","DOMAIN":"ADEX","CUMEXDOS":13608,"AVGDOSE":77.3182,"TOTEXDUR":176,"TRT01A":"Xanomeline High Dose","TRT01AN":3,"SAFFL":"Y","ITTFL":"Y","COMPFL":"Y","SITEID":"703","AGE":78,"SEX":"F","RACE":"WHITE","ARMCD":"Xan_Hi","TRTSDT":"2012-07-20","TRTEDT":"2013-01-11","TRTDUR":176},{"STUDYID":"CDISCPILOT01","USUBJID":"01-703-1279","DOMAIN":"ADEX","CUMEXDOS":1188,"AVGDOSE":54,"TOTEXDUR":22,"TRT01A":"Xanomeline Low Dose","TRT01AN":2,"SAFFL":"Y","ITTFL":"Y","COMPFL":"N","SITEID":"703","AGE":72,"SEX":"F","RACE":"WHITE","ARMCD":"Xan_Lo","TRTSDT":"2013-05-13","TRTEDT":"2013-06-03","TRTDUR":22},{"STUDYID":"CDISCPILOT01","USUBJID":"01-703-1295","DOMAIN":"ADEX","CUMEXDOS":11745,"AVGDOSE":78.3,"TOTEXDUR":150,"TRT01A":"Xanomeline High Dose","TRT01AN":3,"SAFFL":"Y","ITTFL":"Y","COMPFL":"N","SITEID":"703","AGE":88,"SEX":"F","RACE":"WHITE","ARMCD":"Xan_Hi","TRTSDT":"2013-11-21","TRTEDT":"2014-04-19","TRTDUR":150},{"STUDYID":"CDISCPILOT01","USUBJID":"01-703-1299","DOMAIN":"ADEX","CUMEXDOS":0,"AVGDOSE":0,"TOTEXDUR":183,"TRT01A":"Placebo","TRT01AN":1,"SAFFL":"Y","ITTFL":"Y","COMPFL":"Y","SITEID":"703","AGE":81,"SEX":"F","RACE":"WHITE","ARMCD":"Pbo","TRTSDT":"2012-09-12","TRTEDT":"2013-03-13","TRTDUR":183},{"STUDYID":"CDISCPILOT01","USUBJID":"01-703-1335","DOMAIN":"ADEX","CUMEXDOS":3807,"AVGDOSE":73.2115,"TOTEXDUR":52,"TRT01A":"Xanomeline High Dose","TRT01AN":3,"SAFFL":"Y","ITTFL":"Y","COMPFL":"N","SITEID":"703","AGE":67,"SEX":"F","RACE":"BLACK OR AFRICAN AMERICAN","ARMCD":"Xan_Hi","TRTSDT":"2014-03-17","TRTEDT":"2014-05-07","TRTDUR":52},{"STUDYID":"CDISCPILOT01","USUBJID":"01-703-1379","DOMAIN":"ADEX","CUMEXDOS":9774,"AVGDOSE":54,"TOTEXDUR":181,"TRT01A":"Xanomeline Low Dose","TRT01AN":2,"SAFFL":"Y","ITTFL":"Y","COMPFL":"Y","SITEID":"703","AGE":81,"SEX":"F","RACE":"BLACK OR AFRICAN AMERICAN","ARMCD":"Xan_Lo","TRTSDT":"2013-09-22","TRTEDT":"2014-03-21","TRTDUR":181},{"STUDYID":"CDISCPILOT01","USUBJID":"01-703-1403","DOMAIN":"ADEX","CUMEXDOS":108,"AVGDOSE":54,"TOTEXDUR":2,"TRT01A":"Xanomeline High Dose","TRT01AN":3,"SAFFL":"Y","ITTFL":"Y","COMPFL":"N","SITEID":"703","AGE":67,"SEX":"M","RACE":"WHITE","ARMCD":"Xan_Hi","TRTSDT":"2012-12-12","TRTEDT":"2012-12-13","TRTDUR":2},{"STUDYID":"CDISCPILOT01","USUBJID":"01-703-1439","DOMAIN":"ADEX","CUMEXDOS":14121,"AVGDOSE":76.7446,"TOTEXDUR":184,"TRT01A":"Xanomeline High Dose","TRT01AN":3,"SAFFL":"Y","ITTFL":"Y","COMPFL":"Y","SITEID":"703","AGE":76,"SEX":"F","RACE":"WHITE","ARMCD":"Xan_Hi","TRTSDT":"2014-03-12","TRTEDT":"2014-09-11","TRTDUR":184},{"STUDYID":"CDISCPILOT01","USUBJID":"01-704-1008","DOMAIN":"ADEX","CUMEXDOS":2808,"AVGDOSE":70.2,"TOTEXDUR":40,"TRT01A":"Xanomeline High Dose","TRT01AN":3,"SAFFL":"Y","ITTFL":"Y","COMPFL":"N","SITEID":"704","AGE":76,"SEX":"F","RACE":"WHITE","ARMCD":"Xan_Hi","TRTSDT":"2013-01-13","TRTEDT":"2013-02-21","TRTDUR":40},{"STUDYID":"CDISCPILOT01","USUBJID":"01-704-1009","DOMAIN":"ADEX","CUMEXDOS":1620,"AVGDOSE":54,"TOTEXDUR":30,"TRT01A":"Xanomeline Low Dose","TRT01AN":2,"SAFFL":"Y","ITTFL":"Y","COMPFL":"N","SITEID":"704","AGE":83,"SEX":"M","RACE":"WHITE","ARMCD":"Xan_Lo","TRTSDT":"2013-08-27","TRTEDT":"2013-09-25","TRTDUR":30},{"STUDYID":"CDISCPILOT01","USUBJID":"01-704-1010","DOMAIN":"ADEX","CUMEXDOS":0,"AVGDOSE":0,"TOTEXDUR":138,"TRT01A":"Placebo","TRT01AN":1,"SAFFL":"Y","ITTFL":"Y","COMPFL":"N","SITEID":"704","AGE":80,"SEX":"M","RACE":"WHITE","ARMCD":"Pbo","TRTSDT":"2014-02-21","TRTEDT":"2014-07-08","TRTDUR":138},{"STUDYID":"CDISCPILOT01","USUBJID":"01-704-1017","DOMAIN":"ADEX","CUMEXDOS":3186,"AVGDOSE":72.4091,"TOTEXDUR":44,"TRT01A":"Xanomeline High Dose","TRT01AN":3,"SAFFL":"Y","ITTFL":"Y","COMPFL":"N","SITEID":"704","AGE":77,"SEX":"M","RACE":"WHITE","ARMCD":"Xan_Hi","TRTSDT":"2013-10-06","TRTEDT":"2013-11-18","TRTDUR":44},{"STUDYID":"CDISCPILOT01","USUBJID":"01-704-1025","DOMAIN":"ADEX","CUMEXDOS":1512,"AVGDOSE":54,"TOTEXDUR":28,"TRT01A":"Xanomeline Low Dose","TRT01AN":2,"SAFFL":"Y","ITTFL":"Y","COMPFL":"N","SITEID":"704","AGE":81,"SEX":"F","RACE":"WHITE","ARMCD":"Xan_Lo","TRTSDT":"2013-09-27","TRTEDT":"2013-10-24","TRTDUR":28},{"STUDYID":"CDISCPILOT01","USUBJID":"01-704-1065","DOMAIN":"ADEX","CUMEXDOS":4455,"AVGDOSE":74.25,"TOTEXDUR":60,"TRT01A":"Xanomeline High Dose","TRT01AN":3,"SAFFL":"Y","ITTFL":"Y","COMPFL":"N","SITEID":"704","AGE":75,"SEX":"M","RACE":"WHITE","ARMCD":"Xan_Hi","TRTSDT":"2013-10-24","TRTEDT":"2013-12-22","TRTDUR":60},{"STUDYID":"CDISCPILOT01","USUBJID":"01-704-1074","DOMAIN":"ADEX","CUMEXDOS":4185,"AVGDOSE":72.1552,"TOTEXDUR":58,"TRT01A":"Xanomeline High Dose","TRT01AN":3,"SAFFL":"Y","ITTFL":"Y","COMPFL":"N","SITEID":"704","AGE":80,"SEX":"F","RACE":"WHITE","ARMCD":"Xan_Hi","TRTSDT":"2014-01-22","TRTEDT":"2014-03-20","TRTDUR":58},{"STUDYID":"CDISCPILOT01","USUBJID":"01-704-1093","DOMAIN":"ADEX","CUMEXDOS":7263,"AVGDOSE":76.4526,"TOTEXDUR":95,"TRT01A":"Xanomeline High Dose","TRT01AN":3,"SAFFL":"Y","ITTFL":"Y","COMPFL":"N","SITEID":"704","AGE":79,"SEX":"M","RACE":"WHITE","ARMCD":"Xan_Hi","TRTSDT":"2013-03-15","TRTEDT":"2013-06-17","TRTDUR":95},{"STUDYID":"CDISCPILOT01","USUBJID":"01-704-1114","DOMAIN":"ADEX","CUMEXDOS":8964,"AVGDOSE":54,"TOTEXDUR":166,"TRT01A":"Xanomeline Low Dose","TRT01AN":2,"SAFFL":"Y","ITTFL":"Y","COMPFL":"Y","SITEID":"704","AGE":77,"SEX":"M","RACE":"WHITE","ARMCD":"Xan_Lo","TRTSDT":"2013-01-23","TRTEDT":"2013-07-07","TRTDUR":166},{"STUDYID":"CDISCPILOT01","USUBJID":"01-704-1120","DOMAIN":"ADEX","CUMEXDOS":3348,"AVGDOSE":54,"TOTEXDUR":62,"TRT01A":"Xanomeline Low Dose","TRT01AN":2,"SAFFL":"Y","ITTFL":"Y","COMPFL":"N","SITEID":"704","AGE":71,"SEX":"F","RACE":"WHITE","ARMCD":"Xan_Lo","TRTSDT":"2013-12-02","TRTEDT":"2014-02-01","TRTDUR":62},{"STUDYID":"CDISCPILOT01","USUBJID":"01-704-1127","DOMAIN":"ADEX","CUMEXDOS":0,"AVGDOSE":0,"TOTEXDUR":181,"TRT01A":"Placebo","TRT01AN":1,"SAFFL":"Y","ITTFL":"Y","COMPFL":"Y","SITEID":"704","AGE":84,"SEX":"F","RACE":"WHITE","ARMCD":"Pbo","TRTSDT":"2013-10-02","TRTEDT":"2014-03-31","TRTDUR":181},{"STUDYID":"CDISCPILOT01","USUBJID":"01-704-1135","DOMAIN":"ADEX","CUMEXDOS":10692,"AVGDOSE":54,"TOTEXDUR":198,"TRT01A":"Xanomeline Low Dose","TRT01AN":2,"SAFFL":"Y","ITTFL":"Y","COMPFL":"Y","SITEID":"704","AGE":74,"SEX":"F","RACE":"WHITE","ARMCD":"Xan_Lo","TRTSDT":"2013-10-31","TRTEDT":"2014-05-16","TRTDUR":198},{"STUDYID":"CDISCPILOT01","USUBJID":"01-704-1164","DOMAIN":"ADEX","CUMEXDOS":0,"AVGDOSE":0,"TOTEXDUR":198,"TRT01A":"Placebo","TRT01AN":1,"SAFFL":"Y","ITTFL":"Y","COMPFL":"Y","SITEID":"704","AGE":67,"SEX":"F","RACE":"WHITE","ARMCD":"Pbo","TRTSDT":"2012-09-19","TRTEDT":"2013-04-04","TRTDUR":198},{"STUDYID":"CDISCPILOT01","USUBJID":"01-704-1218","DOMAIN":"ADEX","CUMEXDOS":10260,"AVGDOSE":54,"TOTEXDUR":190,"TRT01A":"Xanomeline Low Dose","TRT01AN":2,"SAFFL":"Y","ITTFL":"Y","COMPFL":"Y","SITEID":"704","AGE":81,"SEX":"F","RACE":"WHITE","ARMCD":"Xan_Lo","TRTSDT":"2012-11-19","TRTEDT":"2013-05-27","TRTDUR":190},{"STUDYID":"CDISCPILOT01","USUBJID":"01-704-1233","DOMAIN":"ADEX","CUMEXDOS":0,"AVGDOSE":0,"TOTEXDUR":15,"TRT01A":"Placebo","TRT01AN":1,"SAFFL":"Y","ITTFL":"Y","COMPFL":"N","SITEID":"704","AGE":87,"SEX":"F","RACE":"WHITE","ARMCD":"Pbo","TRTSDT":"2013-03-21","TRTEDT":"2013-04-04","TRTDUR":15},{"STUDYID":"CDISCPILOT01","USUBJID":"01-704-1241","DOMAIN":"ADEX","CUMEXDOS":3402,"AVGDOSE":73.9565,"TOTEXDUR":46,"TRT01A":"Xanomeline High Dose","TRT01AN":3,"SAFFL":"Y","ITTFL":"Y","COMPFL":"N","SITEID":"704","AGE":86,"SEX":"M","RACE":"WHITE","ARMCD":"Xan_Hi","TRTSDT":"2013-08-25","TRTEDT":"2013-10-09","TRTDUR":46},{"STUDYID":"CDISCPILOT01","USUBJID":"01-704-1260","DOMAIN":"ADEX","CUMEXDOS":0,"AVGDOSE":0,"TOTEXDUR":67,"TRT01A":"Placebo","TRT01AN":1,"SAFFL":"Y","ITTFL":"Y","COMPFL":"N","SITEID":"704","AGE":71,"SEX":"F","RACE":"WHITE","ARMCD":"Pbo","TRTSDT":"2012-08-30","TRTEDT":"2012-11-04","TRTDUR":67},{"STUDYID":"CDISCPILOT01","USUBJID":"01-704-1266","DOMAIN":"ADEX","CUMEXDOS":4050,"AVGDOSE":73.6364,"TOTEXDUR":55,"TRT01A":"Xanomeline High Dose","TRT01AN":3,"SAFFL":"Y","ITTFL":"Y","COMPFL":"N","SITEID":"704","AGE":82,"SEX":"M","RACE":"WHITE","ARMCD":"Xan_Hi","TRTSDT":"2013-10-13","TRTEDT":"2013-12-06","TRTDUR":55},{"STUDYID":"CDISCPILOT01","USUBJID":"01-704-1323","DOMAIN":"ADEX","CUMEXDOS":1566,"AVGDOSE":54,"TOTEXDUR":29,"TRT01A":"Xanomeline Low Dose","TRT01AN":2,"SAFFL":"Y","ITTFL":"Y","COMPFL":"N","SITEID":"704","AGE":68,"SEX":"F","RACE":"WHITE","ARMCD":"Xan_Lo","TRTSDT":"2013-07-08","TRTEDT":"2013-08-05","TRTDUR":29},{"STUDYID":"CDISCPILOT01","USUBJID":"01-704-1325","DOMAIN":"ADEX","CUMEXDOS":3942,"AVGDOSE":54,"TOTEXDUR":73,"TRT01A":"Xanomeline Low Dose","TRT01AN":2,"SAFFL":"Y","ITTFL":"Y","COMPFL":"N","SITEID":"704","AGE":81,"SEX":"M","RACE":"WHITE","ARMCD":"Xan_Lo","TRTSDT":"2014-04-23","TRTEDT":"2014-07-04","TRTDUR":73},{"STUDYID":"CDISCPILOT01","USUBJID":"01-704-1332","DOMAIN":"ADEX","CUMEXDOS":5103,"AVGDOSE":75.0441,"TOTEXDUR":68,"TRT01A":"Xanomeline High Dose","TRT01AN":3,"SAFFL":"Y","ITTFL":"Y","COMPFL":"N","SITEID":"704","AGE":80,"SEX":"M","RACE":"WHITE","ARMCD":"Xan_Hi","TRTSDT":"2013-12-09","TRTEDT":"2014-02-14","TRTDUR":68},{"STUDYID":"CDISCPILOT01","USUBJID":"01-704-1351","DOMAIN":"ADEX","CUMEXDOS":0,"AVGDOSE":0,"TOTEXDUR":189,"TRT01A":"Placebo","TRT01AN":1,"SAFFL":"Y","ITTFL":"Y","COMPFL":"Y","SITEID":"704","AGE":70,"SEX":"M","RACE":"WHITE","ARMCD":"Pbo","TRTSDT":"2013-10-12","TRTEDT":"2014-04-18","TRTDUR":189},{"STUDYID":"CDISCPILOT01","USUBJID":"01-704-1388","DOMAIN":"ADEX","CUMEXDOS":0,"AVGDOSE":0,"TOTEXDUR":187,"TRT01A":"Placebo","TRT01AN":1,"SAFFL":"Y","ITTFL":"Y","COMPFL":"Y","SITEID":"704","AGE":81,"SEX":"M","RACE":"WHITE","ARMCD":"Pbo","TRTSDT":"2012-12-07","TRTEDT":"2013-06-11","TRTDUR":187},{"STUDYID":"CDISCPILOT01","USUBJID":"01-704-1435","DOMAIN":"ADEX","CUMEXDOS":0,"AVGDOSE":0,"TOTEXDUR":54,"TRT01A":"Placebo","TRT01AN":1,"SAFFL":"Y","ITTFL":"Y","COMPFL":"N","SITEID":"704","AGE":74,"SEX":"M","RACE":"WHITE","ARMCD":"Pbo","TRTSDT":"2012-11-17","TRTEDT":"2013-01-09","TRTDUR":54},{"STUDYID":"CDISCPILOT01","USUBJID":"01-704-1445","DOMAIN":"ADEX","CUMEXDOS":0,"AVGDOSE":0,"TOTEXDUR":175,"TRT01A":"Placebo","TRT01AN":1,"SAFFL":"Y","ITTFL":"Y","COMPFL":"Y","SITEID":"704","AGE":75,"SEX":"M","RACE":"WHITE","ARMCD":"Pbo","TRTSDT":"2014-05-11","TRTEDT":"2014-11-01","TRTDUR":175},{"STUDYID":"CDISCPILOT01","USUBJID":"01-705-1018","DOMAIN":"ADEX","CUMEXDOS":0,"AVGDOSE":null,"TOTEXDUR":0,"TRT01A":"Placebo","TRT01AN":1,"SAFFL":"Y","ITTFL":"Y","COMPFL":"N","SITEID":"705","AGE":69,"SEX":"F","RACE":"WHITE","ARMCD":"Pbo","TRTSDT":"2013-07-05","TRTEDT":null,"TRTDUR":null},{"STUDYID":"CDISCPILOT01","USUBJID":"01-705-1031","DOMAIN":"ADEX","CUMEXDOS":1188,"AVGDOSE":54,"TOTEXDUR":22,"TRT01A":"Xanomeline Low Dose","TRT01AN":2,"SAFFL":"Y","ITTFL":"Y","COMPFL":"Y","SITEID":"705","AGE":56,"SEX":"F","RACE":"WHITE","ARMCD":"Xan_Lo","TRTSDT":"2013-11-27","TRTEDT":"2013-12-18","TRTDUR":22},{"STUDYID":"CDISCPILOT01","USUBJID":"01-705-1059","DOMAIN":"ADEX","CUMEXDOS":0,"AVGDOSE":0,"TOTEXDUR":123,"TRT01A":"Placebo","TRT01AN":1,"SAFFL":"Y","ITTFL":"Y","COMPFL":"N","SITEID":"705","AGE":66,"SEX":"F","RACE":"WHITE","ARMCD":"Pbo","TRTSDT":"2013-08-05","TRTEDT":"2013-12-05","TRTDUR":123},{"STUDYID":"CDISCPILOT01","USUBJID":"01-705-1186","DOMAIN":"ADEX","CUMEXDOS":0,"AVGDOSE":0,"TOTEXDUR":19,"TRT01A":"Placebo","TRT01AN":1,"SAFFL":"Y","ITTFL":"Y","COMPFL":"N","SITEID":"705","AGE":84,"SEX":"F","RACE":"WHITE","ARMCD":"Pbo","TRTSDT":"2014-01-08","TRTEDT":"2014-01-26","TRTDUR":19},{"STUDYID":"CDISCPILOT01","USUBJID":"01-705-1199","DOMAIN":"ADEX","CUMEXDOS":702,"AVGDOSE":54,"TOTEXDUR":13,"TRT01A":"Xanomeline Low Dose","TRT01AN":2,"SAFFL":"Y","ITTFL":"Y","COMPFL":"N","SITEID":"705","AGE":87,"SEX":"M","RACE":"WHITE","ARMCD":"Xan_Lo","TRTSDT":"2013-09-16","TRTEDT":"2013-09-28","TRTDUR":13},{"STUDYID":"CDISCPILOT01","USUBJID":"01-705-1280","DOMAIN":"ADEX","CUMEXDOS":14607,"AVGDOSE":76.8789,"TOTEXDUR":190,"TRT01A":"Xanomeline High Dose","TRT01AN":3,"SAFFL":"Y","ITTFL":"Y","COMPFL":"Y","SITEID":"705","AGE":56,"SEX":"F","RACE":"WHITE","ARMCD":"Xan_Hi","TRTSDT":"2014-01-17","TRTEDT":"2014-07-25","TRTDUR":190},{"STUDYID":"CDISCPILOT01","USUBJID":"01-705-1281","DOMAIN":"ADEX","CUMEXDOS":6966,"AVGDOSE":75.7174,"TOTEXDUR":92,"TRT01A":"Xanomeline High Dose","TRT01AN":3,"SAFFL":"Y","ITTFL":"Y","COMPFL":"N","SITEID":"705","AGE":73,"SEX":"F","RACE":"BLACK OR AFRICAN AMERICAN","ARMCD":"Xan_Hi","TRTSDT":"2013-11-28","TRTEDT":"2014-02-27","TRTDUR":92},{"STUDYID":"CDISCPILOT01","USUBJID":"01-705-1282","DOMAIN":"ADEX","CUMEXDOS":0,"AVGDOSE":0,"TOTEXDUR":181,"TRT01A":"Placebo","TRT01AN":1,"SAFFL":"Y","ITTFL":"Y","COMPFL":"Y","SITEID":"705","AGE":70,"SEX":"F","RACE":"BLACK OR AFRICAN AMERICAN","ARMCD":"Pbo","TRTSDT":"2012-12-26","TRTEDT":"2013-06-24","TRTDUR":181},{"STUDYID":"CDISCPILOT01","USUBJID":"01-705-1292","DOMAIN":"ADEX","CUMEXDOS":11448,"AVGDOSE":54,"TOTEXDUR":212,"TRT01A":"Xanomeline Low Dose","TRT01AN":2,"SAFFL":"Y","ITTFL":"Y","COMPFL":"Y","SITEID":"705","AGE":60,"SEX":"F","RACE":"BLACK OR AFRICAN AMERICAN","ARMCD":"Xan_Lo","TRTSDT":"2013-10-14","TRTEDT":"2014-05-13","TRTDUR":212},{"STUDYID":"CDISCPILOT01","USUBJID":"01-705-1303","DOMAIN":"ADEX","CUMEXDOS":810,"AVGDOSE":54,"TOTEXDUR":15,"TRT01A":"Xanomeline High Dose","TRT01AN":3,"SAFFL":"Y","ITTFL":"Y","COMPFL":"N","SITEID":"705","AGE":72,"SEX":"M","RACE":"WHITE","ARMCD":"Xan_Hi","TRTSDT":"2013-12-16","TRTEDT":"2013-12-30","TRTDUR":15},{"STUDYID":"CDISCPILOT01","USUBJID":"01-705-1310","DOMAIN":"ADEX","CUMEXDOS":6156,"AVGDOSE":74.1687,"TOTEXDUR":83,"TRT01A":"Xanomeline High Dose","TRT01AN":3,"SAFFL":"Y","ITTFL":"Y","COMPFL":"N","SITEID":"705","AGE":74,"SEX":"F","RACE":"WHITE","ARMCD":"Xan_Hi","TRTSDT":"2013-11-02","TRTEDT":"2014-01-23","TRTDUR":83},{"STUDYID":"CDISCPILOT01","USUBJID":"01-705-1349","DOMAIN":"ADEX","CUMEXDOS":0,"AVGDOSE":0,"TOTEXDUR":183,"TRT01A":"Placebo","TRT01AN":1,"SAFFL":"Y","ITTFL":"Y","COMPFL":"Y","SITEID":"705","AGE":86,"SEX":"F","RACE":"WHITE","ARMCD":"Pbo","TRTSDT":"2013-03-10","TRTEDT":"2013-09-08","TRTDUR":183},{"STUDYID":"CDISCPILOT01","USUBJID":"01-705-1377","DOMAIN":"ADEX","CUMEXDOS":1188,"AVGDOSE":54,"TOTEXDUR":22,"TRT01A":"Xanomeline High Dose","TRT01AN":3,"SAFFL":"Y","ITTFL":"Y","COMPFL":"N","SITEID":"705","AGE":63,"SEX":"F","RACE":"BLACK OR AFRICAN AMERICAN","ARMCD":"Xan_Hi","TRTSDT":"2014-01-04","TRTEDT":"2014-01-25","TRTDUR":22},{"STUDYID":"CDISCPILOT01","USUBJID":"01-705-1382","DOMAIN":"ADEX","CUMEXDOS":0,"AVGDOSE":null,"TOTEXDUR":0,"TRT01A":"Xanomeline High Dose","TRT01AN":3,"SAFFL":"Y","ITTFL":"Y","COMPFL":"N","SITEID":"705","AGE":82,"SEX":"M","RACE":"WHITE","ARMCD":"Xan_Hi","TRTSDT":"2013-05-13","TRTEDT":null,"TRTDUR":null},{"STUDYID":"CDISCPILOT01","USUBJID":"01-705-1393","DOMAIN":"ADEX","CUMEXDOS":7992,"AVGDOSE":54,"TOTEXDUR":148,"TRT01A":"Xanomeline Low Dose","TRT01AN":2,"SAFFL":"Y","ITTFL":"Y","COMPFL":"N","SITEID":"705","AGE":84,"SEX":"F","RACE":"WHITE","ARMCD":"Xan_Lo","TRTSDT":"2012-09-07","TRTEDT":"2013-02-01","TRTDUR":148},{"STUDYID":"CDISCPILOT01","USUBJID":"01-705-1431","DOMAIN":"ADEX","CUMEXDOS":9720,"AVGDOSE":54,"TOTEXDUR":180,"TRT01A":"Xanomeline Low Dose","TRT01AN":2,"SAFFL":"Y","ITTFL":"Y","COMPFL":"Y","SITEID":"705","AGE":68,"SEX":"F","RACE":"WHITE","ARMCD":"Xan_Lo","TRTSDT":"2013-06-23","TRTEDT":"2013-12-19","TRTDUR":180},{"STUDYID":"CDISCPILOT01","USUBJID":"01-706-1041","DOMAIN":"ADEX","CUMEXDOS":0,"AVGDOSE":0,"TOTEXDUR":210,"TRT01A":"Placebo","TRT01AN":1,"SAFFL":"Y","ITTFL":"Y","COMPFL":"Y","SITEID":"706","AGE":64,"SEX":"F","RACE":"BLACK OR AFRICAN AMERICAN","ARMCD":"Pbo","TRTSDT":"2013-12-31","TRTEDT":"2014-07-28","TRTDUR":210},{"STUDYID":"CDISCPILOT01","USUBJID":"01-706-1049","DOMAIN":"ADEX","CUMEXDOS":2511,"AVGDOSE":69.75,"TOTEXDUR":36,"TRT01A":"Xanomeline High Dose","TRT01AN":3,"SAFFL":"Y","ITTFL":"Y","COMPFL":"N","SITEID":"706","AGE":60,"SEX":"F","RACE":"WHITE","ARMCD":"Xan_Hi","TRTSDT":"2013-05-14","TRTEDT":"2013-06-18","TRTDUR":36},{"STUDYID":"CDISCPILOT01","USUBJID":"01-706-1384","DOMAIN":"ADEX","CUMEXDOS":540,"AVGDOSE":54,"TOTEXDUR":10,"TRT01A":"Xanomeline Low Dose","TRT01AN":2,"SAFFL":"Y","ITTFL":"Y","COMPFL":"N","SITEID":"706","AGE":74,"SEX":"F","RACE":"WHITE","ARMCD":"Xan_Lo","TRTSDT":"2012-09-15","TRTEDT":"2012-09-24","TRTDUR":10},{"STUDYID":"CDISCPILOT01","USUBJID":"01-707-1037","DOMAIN":"ADEX","CUMEXDOS":270,"AVGDOSE":54,"TOTEXDUR":5,"TRT01A":"Xanomeline Low Dose","TRT01AN":2,"SAFFL":"Y","ITTFL":"Y","COMPFL":"N","SITEID":"707","AGE":72,"SEX":"F","RACE":"WHITE","ARMCD":"Xan_Lo","TRTSDT":"2013-12-20","TRTEDT":"2013-12-24","TRTDUR":5},{"STUDYID":"CDISCPILOT01","USUBJID":"01-707-1206","DOMAIN":"ADEX","CUMEXDOS":0,"AVGDOSE":0,"TOTEXDUR":181,"TRT01A":"Placebo","TRT01AN":1,"SAFFL":"Y","ITTFL":"Y","COMPFL":"Y","SITEID":"707","AGE":65,"SEX":"M","RACE":"WHITE","ARMCD":"Pbo","TRTSDT":"2013-10-28","TRTEDT":"2014-04-26","TRTDUR":181},{"STUDYID":"CDISCPILOT01","USUBJID":"01-708-1019","DOMAIN":"ADEX","CUMEXDOS":702,"AVGDOSE":54,"TOTEXDUR":13,"TRT01A":"Xanomeline Low Dose","TRT01AN":2,"SAFFL":"Y","ITTFL":"Y","COMPFL":"N","SITEID":"708","AGE":68,"SEX":"M","RACE":"WHITE","ARMCD":"Xan_Lo","TRTSDT":"2013-12-20","TRTEDT":"2014-01-01","TRTDUR":13},{"STUDYID":"CDISCPILOT01","USUBJID":"01-708-1032","DOMAIN":"ADEX","CUMEXDOS":1134,"AVGDOSE":54,"TOTEXDUR":21,"TRT01A":"Xanomeline Low Dose","TRT01AN":2,"SAFFL":"Y","ITTFL":"Y","COMPFL":"N","SITEID":"708","AGE":62,"SEX":"M","RACE":"WHITE","ARMCD":"Xan_Lo","TRTSDT":"2013-02-09","TRTEDT":"2013-03-01","TRTDUR":21},{"STUDYID":"CDISCPILOT01","USUBJID":"01-708-1084","DOMAIN":"ADEX","CUMEXDOS":10098,"AVGDOSE":54,"TOTEXDUR":187,"TRT01A":"Xanomeline Low Dose","TRT01AN":2,"SAFFL":"Y","ITTFL":"Y","COMPFL":"Y","SITEID":"708","AGE":73,"SEX":"F","RACE":"WHITE","ARMCD":"Xan_Lo","TRTSDT":"2013-05-09","TRTEDT":"2013-11-11","TRTDUR":187},{"STUDYID":"CDISCPILOT01","USUBJID":"01-708-1087","DOMAIN":"ADEX","CUMEXDOS":0,"AVGDOSE":0,"TOTEXDUR":189,"TRT01A":"Placebo","TRT01AN":1,"SAFFL":"Y","ITTFL":"Y","COMPFL":"Y","SITEID":"708","AGE":74,"SEX":"F","RACE":"WHITE","ARMCD":"Pbo","TRTSDT":"2012-10-22","TRTEDT":"2013-04-28","TRTDUR":189},{"STUDYID":"CDISCPILOT01","USUBJID":"01-708-1158","DOMAIN":"ADEX","CUMEXDOS":0,"AVGDOSE":0,"TOTEXDUR":42,"TRT01A":"Placebo","TRT01AN":1,"SAFFL":"Y","ITTFL":"Y","COMPFL":"N","SITEID":"708","AGE":81,"SEX":"F","RACE":"WHITE","ARMCD":"Pbo","TRTSDT":"2014-02-08","TRTEDT":"2014-03-21","TRTDUR":42},{"STUDYID":"CDISCPILOT01","USUBJID":"01-708-1171","DOMAIN":"ADEX","CUMEXDOS":0,"AVGDOSE":0,"TOTEXDUR":181,"TRT01A":"Placebo","TRT01AN":1,"SAFFL":"Y","ITTFL":"Y","COMPFL":"Y","SITEID":"708","AGE":77,"SEX":"F","RACE":"WHITE","ARMCD":"Pbo","TRTSDT":"2012-12-06","TRTEDT":"2013-06-04","TRTDUR":181},{"STUDYID":"CDISCPILOT01","USUBJID":"01-708-1178","DOMAIN":"ADEX","CUMEXDOS":7452,"AVGDOSE":75.2727,"TOTEXDUR":99,"TRT01A":"Xanomeline High Dose","TRT01AN":3,"SAFFL":"Y","ITTFL":"Y","COMPFL":"N","SITEID":"708","AGE":77,"SEX":"F","RACE":"BLACK OR AFRICAN AMERICAN","ARMCD":"Xan_Hi","TRTSDT":"2013-12-29","TRTEDT":"2014-04-06","TRTDUR":99},{"STUDYID":"CDISCPILOT01","USUBJID":"01-708-1213","DOMAIN":"ADEX","CUMEXDOS":756,"AVGDOSE":54,"TOTEXDUR":14,"TRT01A":"Xanomeline High Dose","TRT01AN":3,"SAFFL":"Y","ITTFL":"Y","COMPFL":"N","SITEID":"708","AGE":76,"SEX":"F","RACE":"WHITE","ARMCD":"Xan_Hi","TRTSDT":"2013-02-09","TRTEDT":"2013-02-22","TRTDUR":14},{"STUDYID":"CDISCPILOT01","USUBJID":"01-708-1216","DOMAIN":"ADEX","CUMEXDOS":2565,"AVGDOSE":69.3243,"TOTEXDUR":37,"TRT01A":"Xanomeline High Dose","TRT01AN":3,"SAFFL":"Y","ITTFL":"Y","COMPFL":"N","SITEID":"708","AGE":78,"SEX":"M","RACE":"WHITE","ARMCD":"Xan_Hi","TRTSDT":"2012-10-24","TRTEDT":"2012-11-29","TRTDUR":37},{"STUDYID":"CDISCPILOT01","USUBJID":"01-708-1236","DOMAIN":"ADEX","CUMEXDOS":54,"AVGDOSE":54,"TOTEXDUR":1,"TRT01A":"Xanomeline High Dose","TRT01AN":3,"SAFFL":"Y","ITTFL":"Y","COMPFL":"N","SITEID":"708","AGE":86,"SEX":"F","RACE":"WHITE","ARMCD":"Xan_Hi","TRTSDT":"2013-09-21","TRTEDT":"2013-09-21","TRTDUR":1},{"STUDYID":"CDISCPILOT01","USUBJID":"01-708-1253","DOMAIN":"ADEX","CUMEXDOS":0,"AVGDOSE":0,"TOTEXDUR":183,"TRT01A":"Placebo","TRT01AN":1,"SAFFL":"Y","ITTFL":"Y","COMPFL":"Y","SITEID":"708","AGE":61,"SEX":"M","RACE":"WHITE","ARMCD":"Pbo","TRTSDT":"2013-05-07","TRTEDT":"2013-11-05","TRTDUR":183},{"STUDYID":"CDISCPILOT01","USUBJID":"01-708-1272","DOMAIN":"ADEX","CUMEXDOS":2430,"AVGDOSE":54,"TOTEXDUR":45,"TRT01A":"Xanomeline Low Dose","TRT01AN":2,"SAFFL":"Y","ITTFL":"Y","COMPFL":"N","SITEID":"708","AGE":82,"SEX":"M","RACE":"WHITE","ARMCD":"Xan_Lo","TRTSDT":"2013-02-06","TRTEDT":"2013-03-22","TRTDUR":45},{"STUDYID":"CDISCPILOT01","USUBJID":"01-708-1286","DOMAIN":"ADEX","CUMEXDOS":0,"AVGDOSE":0,"TOTEXDUR":180,"TRT01A":"Placebo","TRT01AN":1,"SAFFL":"Y","ITTFL":"Y","COMPFL":"Y","SITEID":"708","AGE":80,"SEX":"F","RACE":"BLACK OR AFRICAN AMERICAN","ARMCD":"Pbo","TRTSDT":"2013-09-10","TRTEDT":"2014-03-08","TRTDUR":180},{"STUDYID":"CDISCPILOT01","USUBJID":"01-708-1296","DOMAIN":"ADEX","CUMEXDOS":0,"AVGDOSE":0,"TOTEXDUR":182,"TRT01A":"Placebo","TRT01AN":1,"SAFFL":"Y","ITTFL":"Y","COMPFL":"Y","SITEID":"708","AGE":57,"SEX":"M","RACE":"BLACK OR AFRICAN AMERICAN","ARMCD":"Pbo","TRTSDT":"2013-06-14","TRTEDT":"2013-12-12","TRTDUR":182},{"STUDYID":"CDISCPILOT01","USUBJID":"01-708-1297","DOMAIN":"ADEX","CUMEXDOS":5346,"AVGDOSE":54,"TOTEXDUR":99,"TRT01A":"Xanomeline Low Dose","TRT01AN":2,"SAFFL":"Y","ITTFL":"Y","COMPFL":"N","SITEID":"708","AGE":61,"SEX":"M","RACE":"WHITE","ARMCD":"Xan_Lo","TRTSDT":"2013-01-25","TRTEDT":"2013-05-03","TRTDUR":99},{"STUDYID":"CDISCPILOT01","USUBJID":"01-708-1316","DOMAIN":"ADEX","CUMEXDOS":0,"AVGDOSE":0,"TOTEXDUR":191,"TRT01A":"Placebo","TRT01AN":1,"SAFFL":"Y","ITTFL":"Y","COMPFL":"Y","SITEID":"708","AGE":74,"SEX":"F","RACE":"WHITE","ARMCD":"Pbo","TRTSDT":"2013-08-23","TRTEDT":"2014-03-01","TRTDUR":191},{"STUDYID":"CDISCPILOT01","USUBJID":"01-708-1336","DOMAIN":"ADEX","CUMEXDOS":13878,"AVGDOSE":76.674,"TOTEXDUR":181,"TRT01A":"Xanomeline High Dose","TRT01AN":3,"SAFFL":"Y","ITTFL":"Y","COMPFL":"Y","SITEID":"708","AGE":73,"SEX":"M","RACE":"WHITE","ARMCD":"Xan_Hi","TRTSDT":"2012-12-07","TRTEDT":"2013-06-05","TRTDUR":181},{"STUDYID":"CDISCPILOT01","USUBJID":"01-708-1342","DOMAIN":"ADEX","CUMEXDOS":0,"AVGDOSE":0,"TOTEXDUR":182,"TRT01A":"Placebo","TRT01AN":1,"SAFFL":"Y","ITTFL":"Y","COMPFL":"Y","SITEID":"708","AGE":59,"SEX":"F","RACE":"WHITE","ARMCD":"Pbo","TRTSDT":"2012-12-29","TRTEDT":"2013-06-28","TRTDUR":182},{"STUDYID":"CDISCPILOT01","USUBJID":"01-708-1347","DOMAIN":"ADEX","CUMEXDOS":4455,"AVGDOSE":74.25,"TOTEXDUR":60,"TRT01A":"Xanomeline High Dose","TRT01AN":3,"SAFFL":"Y","ITTFL":"Y","COMPFL":"N","SITEID":"708","AGE":61,"SEX":"F","RACE":"WHITE","ARMCD":"Xan_Hi","TRTSDT":"2013-04-20","TRTEDT":"2013-06-18","TRTDUR":60},{"STUDYID":"CDISCPILOT01","USUBJID":"01-708-1348","DOMAIN":"ADEX","CUMEXDOS":10422,"AVGDOSE":54,"TOTEXDUR":193,"TRT01A":"Xanomeline Low Dose","TRT01AN":2,"SAFFL":"Y","ITTFL":"Y","COMPFL":"Y","SITEID":"708","AGE":79,"SEX":"F","RACE":"WHITE","ARMCD":"Xan_Lo","TRTSDT":"2013-08-05","TRTEDT":"2014-02-13","TRTDUR":193},{"STUDYID":"CDISCPILOT01","USUBJID":"01-708-1353","DOMAIN":"ADEX","CUMEXDOS":3024,"AVGDOSE":54,"TOTEXDUR":56,"TRT01A":"Xanomeline Low Dose","TRT01AN":2,"SAFFL":"Y","ITTFL":"Y","COMPFL":"N","SITEID":"708","AGE":87,"SEX":"F","RACE":"BLACK OR AFRICAN AMERICAN","ARMCD":"Xan_Lo","TRTSDT":"2013-07-04","TRTEDT":"2013-08-28","TRTDUR":56},{"STUDYID":"CDISCPILOT01","USUBJID":"01-708-1372","DOMAIN":"ADEX","CUMEXDOS":432,"AVGDOSE":54,"TOTEXDUR":8,"TRT01A":"Xanomeline High Dose","TRT01AN":3,"SAFFL":"Y","ITTFL":"Y","COMPFL":"N","SITEID":"708","AGE":84,"SEX":"M","RACE":"WHITE","ARMCD":"Xan_Hi","TRTSDT":"2013-04-12","TRTEDT":"2013-04-19","TRTDUR":8},{"STUDYID":"CDISCPILOT01","USUBJID":"01-708-1378","DOMAIN":"ADEX","CUMEXDOS":0,"AVGDOSE":0,"TOTEXDUR":148,"TRT01A":"Placebo","TRT01AN":1,"SAFFL":"Y","ITTFL":"Y","COMPFL":"N","SITEID":"708","AGE":67,"SEX":"M","RACE":"BLACK OR AFRICAN AMERICAN","ARMCD":"Pbo","TRTSDT":"2013-09-03","TRTEDT":"2014-01-28","TRTDUR":148},{"STUDYID":"CDISCPILOT01","USUBJID":"01-708-1406","DOMAIN":"ADEX","CUMEXDOS":14472,"AVGDOSE":76.5714,"TOTEXDUR":189,"TRT01A":"Xanomeline High Dose","TRT01AN":3,"SAFFL":"Y","ITTFL":"Y","COMPFL":"Y","SITEID":"708","AGE":71,"SEX":"F","RACE":"WHITE","ARMCD":"Xan_Hi","TRTSDT":"2013-12-26","TRTEDT":"2014-07-02","TRTDUR":189},{"STUDYID":"CDISCPILOT01","USUBJID":"01-708-1428","DOMAIN":"ADEX","CUMEXDOS":1944,"AVGDOSE":54,"TOTEXDUR":36,"TRT01A":"Xanomeline Low Dose","TRT01AN":2,"SAFFL":"Y","ITTFL":"Y","COMPFL":"N","SITEID":"708","AGE":84,"SEX":"F","RACE":"WHITE","ARMCD":"Xan_Lo","TRTSDT":"2013-11-09","TRTEDT":"2013-12-14","TRTDUR":36},{"STUDYID":"CDISCPILOT01","USUBJID":"01-709-1001","DOMAIN":"ADEX","CUMEXDOS":0,"AVGDOSE":0,"TOTEXDUR":183,"TRT01A":"Placebo","TRT01AN":1,"SAFFL":"Y","ITTFL":"Y","COMPFL":"Y","SITEID":"709","AGE":76,"SEX":"F","RACE":"WHITE","ARMCD":"Pbo","TRTSDT":"2013-10-08","TRTEDT":"2014-04-08","TRTDUR":183},{"STUDYID":"CDISCPILOT01","USUBJID":"01-709-1007","DOMAIN":"ADEX","CUMEXDOS":1566,"AVGDOSE":54,"TOTEXDUR":29,"TRT01A":"Xanomeline Low Dose","TRT01AN":2,"SAFFL":"Y","ITTFL":"Y","COMPFL":"N","SITEID":"709","AGE":54,"SEX":"F","RACE":"WHITE","ARMCD":"Xan_Lo","TRTSDT":"2012-07-31","TRTEDT":"2012-08-28","TRTDUR":29},{"STUDYID":"CDISCPILOT01","USUBJID":"01-709-1020","DOMAIN":"ADEX","CUMEXDOS":9882,"AVGDOSE":54,"TOTEXDUR":183,"TRT01A":"Xanomeline Low Dose","TRT01AN":2,"SAFFL":"Y","ITTFL":"Y","COMPFL":"Y","SITEID":"709","AGE":72,"SEX":"F","RACE":"WHITE","ARMCD":"Xan_Lo","TRTSDT":"2012-12-01","TRTEDT":"2013-06-01","TRTDUR":183},{"STUDYID":"CDISCPILOT01","USUBJID":"01-709-1029","DOMAIN":"ADEX","CUMEXDOS":14094,"AVGDOSE":76.5978,"TOTEXDUR":184,"TRT01A":"Xanomeline High Dose","TRT01AN":3,"SAFFL":"Y","ITTFL":"Y","COMPFL":"Y","SITEID":"709","AGE":82,"SEX":"M","RACE":"WHITE","ARMCD":"Xan_Hi","TRTSDT":"2012-12-25","TRTEDT":"2013-06-26","TRTDUR":184},{"STUDYID":"CDISCPILOT01","USUBJID":"01-709-1081","DOMAIN":"ADEX","CUMEXDOS":5400,"AVGDOSE":54,"TOTEXDUR":100,"TRT01A":"Xanomeline Low Dose","TRT01AN":2,"SAFFL":"Y","ITTFL":"Y","COMPFL":"N","SITEID":"709","AGE":86,"SEX":"F","RACE":"WHITE","ARMCD":"Xan_Lo","TRTSDT":"2014-01-18","TRTEDT":"2014-04-27","TRTDUR":100},{"STUDYID":"CDISCPILOT01","USUBJID":"01-709-1088","DOMAIN":"ADEX","CUMEXDOS":0,"AVGDOSE":0,"TOTEXDUR":181,"TRT01A":"Placebo","TRT01AN":1,"SAFFL":"Y","ITTFL":"Y","COMPFL":"Y","SITEID":"709","AGE":69,"SEX":"M","RACE":"WHITE","ARMCD":"Pbo","TRTSDT":"2014-04-12","TRTEDT":"2014-10-09","TRTDUR":181},{"STUDYID":"CDISCPILOT01","USUBJID":"01-709-1099","DOMAIN":"ADEX","CUMEXDOS":13932,"AVGDOSE":76.1311,"TOTEXDUR":183,"TRT01A":"Xanomeline High Dose","TRT01AN":3,"SAFFL":"Y","ITTFL":"Y","COMPFL":"Y","SITEID":"709","AGE":79,"SEX":"F","RACE":"WHITE","ARMCD":"Xan_Hi","TRTSDT":"2013-10-25","TRTEDT":"2014-04-25","TRTDUR":183},{"STUDYID":"CDISCPILOT01","USUBJID":"01-709-1102","DOMAIN":"ADEX","CUMEXDOS":3888,"AVGDOSE":54,"TOTEXDUR":72,"TRT01A":"Xanomeline Low Dose","TRT01AN":2,"SAFFL":"Y","ITTFL":"Y","COMPFL":"N","SITEID":"709","AGE":71,"SEX":"F","RACE":"WHITE","ARMCD":"Xan_Lo","TRTSDT":"2013-01-15","TRTEDT":"2013-03-27","TRTDUR":72},{"STUDYID":"CDISCPILOT01","USUBJID":"01-709-1168","DOMAIN":"ADEX","CUMEXDOS":4104,"AVGDOSE":73.2857,"TOTEXDUR":56,"TRT01A":"Xanomeline High Dose","TRT01AN":3,"SAFFL":"Y","ITTFL":"Y","COMPFL":"N","SITEID":"709","AGE":72,"SEX":"F","RACE":"WHITE","ARMCD":"Xan_Hi","TRTSDT":"2013-08-02","TRTEDT":"2013-09-26","TRTDUR":56},{"STUDYID":"CDISCPILOT01","USUBJID":"01-709-1217","DOMAIN":"ADEX","CUMEXDOS":5400,"AVGDOSE":54,"TOTEXDUR":100,"TRT01A":"Xanomeline Low Dose","TRT01AN":2,"SAFFL":"Y","ITTFL":"Y","COMPFL":"N","SITEID":"709","AGE":77,"SEX":"M","RACE":"WHITE","ARMCD":"Xan_Lo","TRTSDT":"2013-03-04","TRTEDT":"2013-06-11","TRTDUR":100},{"STUDYID":"CDISCPILOT01","USUBJID":"01-709-1238","DOMAIN":"ADEX","CUMEXDOS":6399,"AVGDOSE":76.1786,"TOTEXDUR":84,"TRT01A":"Xanomeline High Dose","TRT01AN":3,"SAFFL":"Y","ITTFL":"Y","COMPFL":"N","SITEID":"709","AGE":69,"SEX":"M","RACE":"WHITE","ARMCD":"Xan_Hi","TRTSDT":"2013-05-15","TRTEDT":"2013-08-06","TRTDUR":84},{"STUDYID":"CDISCPILOT01","USUBJID":"01-709-1259","DOMAIN":"ADEX","CUMEXDOS":0,"AVGDOSE":0,"TOTEXDUR":139,"TRT01A":"Placebo","TRT01AN":1,"SAFFL":"Y","ITTFL":"Y","COMPFL":"N","SITEID":"709","AGE":82,"SEX":"M","RACE":"WHITE","ARMCD":"Pbo","TRTSDT":"2013-01-26","TRTEDT":"2013-06-13","TRTDUR":139},{"STUDYID":"CDISCPILOT01","USUBJID":"01-709-1285","DOMAIN":"ADEX","CUMEXDOS":3294,"AVGDOSE":54,"TOTEXDUR":61,"TRT01A":"Xanomeline Low Dose","TRT01AN":2,"SAFFL":"Y","ITTFL":"Y","COMPFL":"N","SITEID":"709","AGE":87,"SEX":"M","RACE":"WHITE","ARMCD":"Xan_Lo","TRTSDT":"2013-03-24","TRTEDT":"2013-05-23","TRTDUR":61},{"STUDYID":"CDISCPILOT01","USUBJID":"01-709-1301","DOMAIN":"ADEX","CUMEXDOS":0,"AVGDOSE":0,"TOTEXDUR":183,"TRT01A":"Placebo","TRT01AN":1,"SAFFL":"Y","ITTFL":"Y","COMPFL":"Y","SITEID":"709","AGE":62,"SEX":"F","RACE":"WHITE","ARMCD":"Pbo","TRTSDT":"2013-07-19","TRTEDT":"2014-01-17","TRTDUR":183},{"STUDYID":"CDISCPILOT01","USUBJID":"01-709-1306","DOMAIN":"ADEX","CUMEXDOS":0,"AVGDOSE":0,"TOTEXDUR":134,"TRT01A":"Placebo","TRT01AN":1,"SAFFL":"Y","ITTFL":"Y","COMPFL":"N","SITEID":"709","AGE":60,"SEX":"F","RACE":"WHITE","ARMCD":"Pbo","TRTSDT":"2014-02-03","TRTEDT":"2014-06-16","TRTDUR":134},{"STUDYID":"CDISCPILOT01","USUBJID":"01-709-1309","DOMAIN":"ADEX","CUMEXDOS":14175,"AVGDOSE":77.038,"TOTEXDUR":184,"TRT01A":"Xanomeline High Dose","TRT01AN":3,"SAFFL":"Y","ITTFL":"Y","COMPFL":"Y","SITEID":"709","AGE":65,"SEX":"M","RACE":"WHITE","ARMCD":"Xan_Hi","TRTSDT":"2013-06-19","TRTEDT":"2013-12-19","TRTDUR":184},{"STUDYID":"CDISCPILOT01","USUBJID":"01-709-1312","DOMAIN":"ADEX","CUMEXDOS":0,"AVGDOSE":0,"TOTEXDUR":183,"TRT01A":"Placebo","TRT01AN":1,"SAFFL":"Y","ITTFL":"Y","COMPFL":"Y","SITEID":"709","AGE":68,"SEX":"F","RACE":"WHITE","ARMCD":"Pbo","TRTSDT":"2014-04-20","TRTEDT":"2014-10-19","TRTDUR":183},{"STUDYID":"CDISCPILOT01","USUBJID":"01-709-1326","DOMAIN":"ADEX","CUMEXDOS":9774,"AVGDOSE":54,"TOTEXDUR":181,"TRT01A":"Xanomeline Low Dose","TRT01AN":2,"SAFFL":"Y","ITTFL":"Y","COMPFL":"Y","SITEID":"709","AGE":75,"SEX":"F","RACE":"WHITE","ARMCD":"Xan_Lo","TRTSDT":"2013-04-05","TRTEDT":"2013-10-02","TRTDUR":181},{"STUDYID":"CDISCPILOT01","USUBJID":"01-709-1329","DOMAIN":"ADEX","CUMEXDOS":594,"AVGDOSE":54,"TOTEXDUR":11,"TRT01A":"Xanomeline High Dose","TRT01AN":3,"SAFFL":"Y","ITTFL":"Y","COMPFL":"N","SITEID":"709","AGE":70,"SEX":"M","RACE":"WHITE","ARMCD":"Xan_Hi","TRTSDT":"2013-08-15","TRTEDT":"2013-08-25","TRTDUR":11},{"STUDYID":"CDISCPILOT01","USUBJID":"01-709-1339","DOMAIN":"ADEX","CUMEXDOS":0,"AVGDOSE":0,"TOTEXDUR":184,"TRT01A":"Placebo","TRT01AN":1,"SAFFL":"Y","ITTFL":"Y","COMPFL":"Y","SITEID":"709","AGE":81,"SEX":"M","RACE":"WHITE","ARMCD":"Pbo","TRTSDT":"2012-12-23","TRTEDT":"2013-06-24","TRTDUR":184},{"STUDYID":"CDISCPILOT01","USUBJID":"01-709-1424","DOMAIN":"ADEX","CUMEXDOS":270,"AVGDOSE":54,"TOTEXDUR":5,"TRT01A":"Xanomeline High Dose","TRT01AN":3,"SAFFL":"Y","ITTFL":"Y","COMPFL":"N","SITEID":"709","AGE":77,"SEX":"M","RACE":"WHITE","ARMCD":"Xan_Hi","TRTSDT":"2013-03-03","TRTEDT":"2013-03-07","TRTDUR":5},{"STUDYID":"CDISCPILOT01","USUBJID":"01-710-1002","DOMAIN":"ADEX","CUMEXDOS":270,"AVGDOSE":54,"TOTEXDUR":5,"TRT01A":"Xanomeline Low Dose","TRT01AN":2,"SAFFL":"Y","ITTFL":"Y","COMPFL":"N","SITEID":"710","AGE":88,"SEX":"M","RACE":"WHITE","ARMCD":"Xan_Lo","TRTSDT":"2014-01-14","TRTEDT":"2014-01-18","TRTDUR":5},{"STUDYID":"CDISCPILOT01","USUBJID":"01-710-1006","DOMAIN":"ADEX","CUMEXDOS":13959,"AVGDOSE":77.1215,"TOTEXDUR":181,"TRT01A":"Xanomeline High Dose","TRT01AN":3,"SAFFL":"Y","ITTFL":"Y","COMPFL":"Y","SITEID":"710","AGE":77,"SEX":"M","RACE":"WHITE","ARMCD":"Xan_Hi","TRTSDT":"2013-02-10","TRTEDT":"2013-08-09","TRTDUR":181},{"STUDYID":"CDISCPILOT01","USUBJID":"01-710-1021","DOMAIN":"ADEX","CUMEXDOS":2268,"AVGDOSE":68.7273,"TOTEXDUR":33,"TRT01A":"Xanomeline High Dose","TRT01AN":3,"SAFFL":"Y","ITTFL":"Y","COMPFL":"N","SITEID":"710","AGE":79,"SEX":"M","RACE":"BLACK OR AFRICAN AMERICAN","ARMCD":"Xan_Hi","TRTSDT":"2013-09-27","TRTEDT":"2013-10-29","TRTDUR":33},{"STUDYID":"CDISCPILOT01","USUBJID":"01-710-1027","DOMAIN":"ADEX","CUMEXDOS":0,"AVGDOSE":0,"TOTEXDUR":183,"TRT01A":"Placebo","TRT01AN":1,"SAFFL":"Y","ITTFL":"Y","COMPFL":"Y","SITEID":"710","AGE":83,"SEX":"M","RACE":"WHITE","ARMCD":"Pbo","TRTSDT":"2014-02-28","TRTEDT":"2014-08-29","TRTDUR":183},{"STUDYID":"CDISCPILOT01","USUBJID":"01-710-1045","DOMAIN":"ADEX","CUMEXDOS":3888,"AVGDOSE":54,"TOTEXDUR":72,"TRT01A":"Xanomeline Low Dose","TRT01AN":2,"SAFFL":"Y","ITTFL":"Y","COMPFL":"N","SITEID":"710","AGE":83,"SEX":"F","RACE":"WHITE","ARMCD":"Xan_Lo","TRTSDT":"2013-06-03","TRTEDT":"2013-08-13","TRTDUR":72},{"STUDYID":"CDISCPILOT01","USUBJID":"01-710-1053","DOMAIN":"ADEX","CUMEXDOS":2538,"AVGDOSE":54,"TOTEXDUR":47,"TRT01A":"Xanomeline Low Dose","TRT01AN":2,"SAFFL":"Y","ITTFL":"Y","COMPFL":"N","SITEID":"710","AGE":84,"SEX":"F","RACE":"WHITE","ARMCD":"Xan_Lo","TRTSDT":"2012-12-26","TRTEDT":"2013-02-10","TRTDUR":47},{"STUDYID":"CDISCPILOT01","USUBJID":"01-710-1060","DOMAIN":"ADEX","CUMEXDOS":0,"AVGDOSE":0,"TOTEXDUR":186,"TRT01A":"Placebo","TRT01AN":1,"SAFFL":"Y","ITTFL":"Y","COMPFL":"Y","SITEID":"710","AGE":82,"SEX":"M","RACE":"WHITE","ARMCD":"Pbo","TRTSDT":"2013-01-01","TRTEDT":"2013-07-05","TRTDUR":186},{"STUDYID":"CDISCPILOT01","USUBJID":"01-710-1070","DOMAIN":"ADEX","CUMEXDOS":10692,"AVGDOSE":78.0438,"TOTEXDUR":137,"TRT01A":"Xanomeline High Dose","TRT01AN":3,"SAFFL":"Y","ITTFL":"Y","COMPFL":"N","SITEID":"710","AGE":85,"SEX":"F","RACE":"WHITE","ARMCD":"Xan_Hi","TRTSDT":"2012-09-08","TRTEDT":"2013-01-22","TRTDUR":137},{"STUDYID":"CDISCPILOT01","USUBJID":"01-710-1077","DOMAIN":"ADEX","CUMEXDOS":0,"AVGDOSE":0,"TOTEXDUR":183,"TRT01A":"Placebo","TRT01AN":1,"SAFFL":"Y","ITTFL":"Y","COMPFL":"Y","SITEID":"710","AGE":76,"SEX":"F","RACE":"WHITE","ARMCD":"Pbo","TRTSDT":"2013-11-17","TRTEDT":"2014-05-18","TRTDUR":183},{"STUDYID":"CDISCPILOT01","USUBJID":"01-710-1078","DOMAIN":"ADEX","CUMEXDOS":0,"AVGDOSE":0,"TOTEXDUR":188,"TRT01A":"Placebo","TRT01AN":1,"SAFFL":"Y","ITTFL":"Y","COMPFL":"Y","SITEID":"710","AGE":81,"SEX":"F","RACE":"WHITE","ARMCD":"Pbo","TRTSDT":"2013-09-17","TRTEDT":"2014-03-23","TRTDUR":188},{"STUDYID":"CDISCPILOT01","USUBJID":"01-710-1083","DOMAIN":"ADEX","CUMEXDOS":0,"AVGDOSE":0,"TOTEXDUR":11,"TRT01A":"Placebo","TRT01AN":1,"SAFFL":"Y","ITTFL":"Y","COMPFL":"N","SITEID":"710","AGE":89,"SEX":"F","RACE":"WHITE","ARMCD":"Pbo","TRTSDT":"2013-07-22","TRTEDT":"2013-08-01","TRTDUR":11},{"STUDYID":"CDISCPILOT01","USUBJID":"01-710-1137","DOMAIN":"ADEX","CUMEXDOS":2349,"AVGDOSE":69.0882,"TOTEXDUR":34,"TRT01A":"Xanomeline High Dose","TRT01AN":3,"SAFFL":"Y","ITTFL":"Y","COMPFL":"N","SITEID":"710","AGE":79,"SEX":"F","RACE":"BLACK OR AFRICAN AMERICAN","ARMCD":"Xan_Hi","TRTSDT":"2013-10-11","TRTEDT":"2013-11-13","TRTDUR":34},{"STUDYID":"CDISCPILOT01","USUBJID":"01-710-1142","DOMAIN":"ADEX","CUMEXDOS":1134,"AVGDOSE":59.6842,"TOTEXDUR":19,"TRT01A":"Xanomeline High Dose","TRT01AN":3,"SAFFL":"Y","ITTFL":"Y","COMPFL":"N","SITEID":"710","AGE":76,"SEX":"F","RACE":"WHITE","ARMCD":"Xan_Hi","TRTSDT":"2012-10-02","TRTEDT":"2012-10-20","TRTDUR":19},{"STUDYID":"CDISCPILOT01","USUBJID":"01-710-1154","DOMAIN":"ADEX","CUMEXDOS":1620,"AVGDOSE":54,"TOTEXDUR":30,"TRT01A":"Xanomeline Low Dose","TRT01AN":2,"SAFFL":"Y","ITTFL":"Y","COMPFL":"N","SITEID":"710","AGE":84,"SEX":"M","RACE":"WHITE","ARMCD":"Xan_Lo","TRTSDT":"2014-03-29","TRTEDT":"2014-04-27","TRTDUR":30},{"STUDYID":"CDISCPILOT01","USUBJID":"01-710-1166","DOMAIN":"ADEX","CUMEXDOS":5940,"AVGDOSE":54,"TOTEXDUR":110,"TRT01A":"Xanomeline Low Dose","TRT01AN":2,"SAFFL":"Y","ITTFL":"Y","COMPFL":"N","SITEID":"710","AGE":81,"SEX":"F","RACE":"WHITE","ARMCD":"Xan_Lo","TRTSDT":"2012-11-30","TRTEDT":"2013-03-19","TRTDUR":110},{"STUDYID":"CDISCPILOT01","USUBJID":"01-710-1183","DOMAIN":"ADEX","CUMEXDOS":0,"AVGDOSE":0,"TOTEXDUR":183,"TRT01A":"Placebo","TRT01AN":1,"SAFFL":"Y","ITTFL":"Y","COMPFL":"Y","SITEID":"710","AGE":80,"SEX":"F","RACE":"WHITE","ARMCD":"Pbo","TRTSDT":"2013-11-16","TRTEDT":"2014-05-17","TRTDUR":183},{"STUDYID":"CDISCPILOT01","USUBJID":"01-710-1187","DOMAIN":"ADEX","CUMEXDOS":14121,"AVGDOSE":76.7446,"TOTEXDUR":184,"TRT01A":"Xanomeline High Dose","TRT01AN":3,"SAFFL":"Y","ITTFL":"Y","COMPFL":"Y","SITEID":"710","AGE":78,"SEX":"F","RACE":"WHITE","ARMCD":"Xan_Hi","TRTSDT":"2012-11-10","TRTEDT":"2013-05-12","TRTDUR":184},{"STUDYID":"CDISCPILOT01","USUBJID":"01-710-1235","DOMAIN":"ADEX","CUMEXDOS":9882,"AVGDOSE":54,"TOTEXDUR":183,"TRT01A":"Xanomeline Low Dose","TRT01AN":2,"SAFFL":"Y","ITTFL":"Y","COMPFL":"Y","SITEID":"710","AGE":56,"SEX":"F","RACE":"WHITE","ARMCD":"Xan_Lo","TRTSDT":"2012-09-26","TRTEDT":"2013-03-27","TRTDUR":183},{"STUDYID":"CDISCPILOT01","USUBJID":"01-710-1249","DOMAIN":"ADEX","CUMEXDOS":14040,"AVGDOSE":76.7213,"TOTEXDUR":183,"TRT01A":"Xanomeline High Dose","TRT01AN":3,"SAFFL":"Y","ITTFL":"Y","COMPFL":"Y","SITEID":"710","AGE":79,"SEX":"M","RACE":"WHITE","ARMCD":"Xan_Hi","TRTSDT":"2013-12-28","TRTEDT":"2014-06-28","TRTDUR":183},{"STUDYID":"CDISCPILOT01","USUBJID":"01-710-1264","DOMAIN":"ADEX","CUMEXDOS":0,"AVGDOSE":0,"TOTEXDUR":121,"TRT01A":"Placebo","TRT01AN":1,"SAFFL":"Y","ITTFL":"Y","COMPFL":"N","SITEID":"710","AGE":78,"SEX":"M","RACE":"WHITE","ARMCD":"Pbo","TRTSDT":"2013-06-13","TRTEDT":"2013-10-11","TRTDUR":121},{"STUDYID":"CDISCPILOT01","USUBJID":"01-710-1270","DOMAIN":"ADEX","CUMEXDOS":972,"AVGDOSE":54,"TOTEXDUR":18,"TRT01A":"Xanomeline Low Dose","TRT01AN":2,"SAFFL":"Y","ITTFL":"Y","COMPFL":"N","SITEID":"710","AGE":83,"SEX":"F","RACE":"WHITE","ARMCD":"Xan_Lo","TRTSDT":"2014-02-12","TRTEDT":"2014-03-01","TRTDUR":18},{"STUDYID":"CDISCPILOT01","USUBJID":"01-710-1271","DOMAIN":"ADEX","CUMEXDOS":0,"AVGDOSE":0,"TOTEXDUR":56,"TRT01A":"Placebo","TRT01AN":1,"SAFFL":"Y","ITTFL":"Y","COMPFL":"N","SITEID":"710","AGE":86,"SEX":"F","RACE":"WHITE","ARMCD":"Pbo","TRTSDT":"2012-09-27","TRTEDT":"2012-11-21","TRTDUR":56},{"STUDYID":"CDISCPILOT01","USUBJID":"01-710-1278","DOMAIN":"ADEX","CUMEXDOS":4860,"AVGDOSE":74.7692,"TOTEXDUR":65,"TRT01A":"Xanomeline High Dose","TRT01AN":3,"SAFFL":"Y","ITTFL":"Y","COMPFL":"N","SITEID":"710","AGE":81,"SEX":"M","RACE":"WHITE","ARMCD":"Xan_Hi","TRTSDT":"2012-12-24","TRTEDT":"2013-02-26","TRTDUR":65},{"STUDYID":"CDISCPILOT01","USUBJID":"01-710-1300","DOMAIN":"ADEX","CUMEXDOS":3402,"AVGDOSE":54,"TOTEXDUR":63,"TRT01A":"Xanomeline Low Dose","TRT01AN":2,"SAFFL":"Y","ITTFL":"Y","COMPFL":"N","SITEID":"710","AGE":78,"SEX":"F","RACE":"WHITE","ARMCD":"Xan_Lo","TRTSDT":"2012-12-15","TRTEDT":"2013-02-15","TRTDUR":63},{"STUDYID":"CDISCPILOT01","USUBJID":"01-710-1314","DOMAIN":"ADEX","CUMEXDOS":0,"AVGDOSE":0,"TOTEXDUR":30,"TRT01A":"Placebo","TRT01AN":1,"SAFFL":"Y","ITTFL":"Y","COMPFL":"N","SITEID":"710","AGE":78,"SEX":"F","RACE":"WHITE","ARMCD":"Pbo","TRTSDT":"2013-04-24","TRTEDT":"2013-05-23","TRTDUR":30},{"STUDYID":"CDISCPILOT01","USUBJID":"01-710-1315","DOMAIN":"ADEX","CUMEXDOS":0,"AVGDOSE":0,"TOTEXDUR":130,"TRT01A":"Placebo","TRT01AN":1,"SAFFL":"Y","ITTFL":"Y","COMPFL":"N","SITEID":"710","AGE":83,"SEX":"F","RACE":"WHITE","ARMCD":"Pbo","TRTSDT":"2013-02-27","TRTEDT":"2013-07-06","TRTDUR":130},{"STUDYID":"CDISCPILOT01","USUBJID":"01-710-1354","DOMAIN":"ADEX","CUMEXDOS":13257,"AVGDOSE":77.0756,"TOTEXDUR":172,"TRT01A":"Xanomeline High Dose","TRT01AN":3,"SAFFL":"Y","ITTFL":"Y","COMPFL":"Y","SITEID":"710","AGE":73,"SEX":"M","RACE":"WHITE","ARMCD":"Xan_Hi","TRTSDT":"2012-11-11","TRTEDT":"2013-05-01","TRTDUR":172},{"STUDYID":"CDISCPILOT01","USUBJID":"01-710-1358","DOMAIN":"ADEX","CUMEXDOS":7884,"AVGDOSE":54,"TOTEXDUR":146,"TRT01A":"Xanomeline Low Dose","TRT01AN":2,"SAFFL":"Y","ITTFL":"Y","COMPFL":"Y","SITEID":"710","AGE":82,"SEX":"M","RACE":"WHITE","ARMCD":"Xan_Lo","TRTSDT":"2012-09-17","TRTEDT":"2013-02-09","TRTDUR":146},{"STUDYID":"CDISCPILOT01","USUBJID":"01-710-1368","DOMAIN":"ADEX","CUMEXDOS":0,"AVGDOSE":0,"TOTEXDUR":184,"TRT01A":"Placebo","TRT01AN":1,"SAFFL":"Y","ITTFL":"Y","COMPFL":"Y","SITEID":"710","AGE":88,"SEX":"F","RACE":"WHITE","ARMCD":"Pbo","TRTSDT":"2013-10-23","TRTEDT":"2014-04-24","TRTDUR":184},{"STUDYID":"CDISCPILOT01","USUBJID":"01-710-1385","DOMAIN":"ADEX","CUMEXDOS":6102,"AVGDOSE":54,"TOTEXDUR":113,"TRT01A":"Xanomeline Low Dose","TRT01AN":2,"SAFFL":"Y","ITTFL":"Y","COMPFL":"N","SITEID":"710","AGE":77,"SEX":"M","RACE":"WHITE","ARMCD":"Xan_Lo","TRTSDT":"2012-10-29","TRTEDT":"2013-02-18","TRTDUR":113},{"STUDYID":"CDISCPILOT01","USUBJID":"01-710-1408","DOMAIN":"ADEX","CUMEXDOS":14391,"AVGDOSE":76.1429,"TOTEXDUR":189,"TRT01A":"Xanomeline High Dose","TRT01AN":3,"SAFFL":"Y","ITTFL":"Y","COMPFL":"Y","SITEID":"710","AGE":80,"SEX":"M","RACE":"WHITE","ARMCD":"Xan_Hi","TRTSDT":"2013-01-05","TRTEDT":"2013-07-12","TRTDUR":189},{"STUDYID":"CDISCPILOT01","USUBJID":"01-711-1012","DOMAIN":"ADEX","CUMEXDOS":1782,"AVGDOSE":66,"TOTEXDUR":27,"TRT01A":"Xanomeline High Dose","TRT01AN":3,"SAFFL":"Y","ITTFL":"Y","COMPFL":"N","SITEID":"711","AGE":67,"SEX":"F","RACE":"WHITE","ARMCD":"Xan_Hi","TRTSDT":"2013-04-03","TRTEDT":"2013-04-29","TRTDUR":27},{"STUDYID":"CDISCPILOT01","USUBJID":"01-711-1036","DOMAIN":"ADEX","CUMEXDOS":0,"AVGDOSE":0,"TOTEXDUR":197,"TRT01A":"Placebo","TRT01AN":1,"SAFFL":"Y","ITTFL":"Y","COMPFL":"Y","SITEID":"711","AGE":70,"SEX":"M","RACE":"BLACK OR AFRICAN AMERICAN","ARMCD":"Pbo","TRTSDT":"2012-07-29","TRTEDT":"2013-02-10","TRTDUR":197},{"STUDYID":"CDISCPILOT01","USUBJID":"01-711-1143","DOMAIN":"ADEX","CUMEXDOS":3132,"AVGDOSE":54,"TOTEXDUR":58,"TRT01A":"Xanomeline Low Dose","TRT01AN":2,"SAFFL":"Y","ITTFL":"Y","COMPFL":"N","SITEID":"711","AGE":76,"SEX":"F","RACE":"WHITE","ARMCD":"Xan_Lo","TRTSDT":"2013-04-03","TRTEDT":"2013-05-30","TRTDUR":58},{"STUDYID":"CDISCPILOT01","USUBJID":"01-711-1433","DOMAIN":"ADEX","CUMEXDOS":540,"AVGDOSE":54,"TOTEXDUR":10,"TRT01A":"Xanomeline High Dose","TRT01AN":3,"SAFFL":"Y","ITTFL":"Y","COMPFL":"N","SITEID":"711","AGE":84,"SEX":"F","RACE":"WHITE","ARMCD":"Xan_Hi","TRTSDT":"2013-01-27","TRTEDT":"2013-02-05","TRTDUR":10},{"STUDYID":"CDISCPILOT01","USUBJID":"01-713-1043","DOMAIN":"ADEX","CUMEXDOS":10314,"AVGDOSE":54,"TOTEXDUR":191,"TRT01A":"Xanomeline Low Dose","TRT01AN":2,"SAFFL":"Y","ITTFL":"Y","COMPFL":"Y","SITEID":"713","AGE":78,"SEX":"F","RACE":"WHITE","ARMCD":"Xan_Lo","TRTSDT":"2013-09-15","TRTEDT":"2014-03-24","TRTDUR":191},{"STUDYID":"CDISCPILOT01","USUBJID":"01-713-1073","DOMAIN":"ADEX","CUMEXDOS":10260,"AVGDOSE":54,"TOTEXDUR":190,"TRT01A":"Xanomeline Low Dose","TRT01AN":2,"SAFFL":"Y","ITTFL":"Y","COMPFL":"Y","SITEID":"713","AGE":74,"SEX":"F","RACE":"BLACK OR AFRICAN AMERICAN","ARMCD":"Xan_Lo","TRTSDT":"2014-03-30","TRTEDT":"2014-10-05","TRTDUR":190},{"STUDYID":"CDISCPILOT01","USUBJID":"01-713-1106","DOMAIN":"ADEX","CUMEXDOS":14418,"AVGDOSE":76.6915,"TOTEXDUR":188,"TRT01A":"Xanomeline High Dose","TRT01AN":3,"SAFFL":"Y","ITTFL":"Y","COMPFL":"Y","SITEID":"713","AGE":74,"SEX":"M","RACE":"WHITE","ARMCD":"Xan_Hi","TRTSDT":"2012-10-31","TRTEDT":"2013-05-06","TRTDUR":188},{"STUDYID":"CDISCPILOT01","USUBJID":"01-713-1141","DOMAIN":"ADEX","CUMEXDOS":2187,"AVGDOSE":68.3438,"TOTEXDUR":32,"TRT01A":"Xanomeline High Dose","TRT01AN":3,"SAFFL":"Y","ITTFL":"Y","COMPFL":"N","SITEID":"713","AGE":79,"SEX":"M","RACE":"WHITE","ARMCD":"Xan_Hi","TRTSDT":"2013-05-31","TRTEDT":"2013-07-01","TRTDUR":32},{"STUDYID":"CDISCPILOT01","USUBJID":"01-713-1179","DOMAIN":"ADEX","CUMEXDOS":0,"AVGDOSE":0,"TOTEXDUR":181,"TRT01A":"Placebo","TRT01AN":1,"SAFFL":"Y","ITTFL":"Y","COMPFL":"Y","SITEID":"713","AGE":64,"SEX":"F","RACE":"WHITE","ARMCD":"Pbo","TRTSDT":"2013-08-09","TRTEDT":"2014-02-05","TRTDUR":181},{"STUDYID":"CDISCPILOT01","USUBJID":"01-713-1209","DOMAIN":"ADEX","CUMEXDOS":13851,"AVGDOSE":76.95,"TOTEXDUR":180,"TRT01A":"Xanomeline High Dose","TRT01AN":3,"SAFFL":"Y","ITTFL":"Y","COMPFL":"Y","SITEID":"713","AGE":77,"SEX":"F","RACE":"WHITE","ARMCD":"Xan_Hi","TRTSDT":"2013-05-27","TRTEDT":"2013-11-22","TRTDUR":180},{"STUDYID":"CDISCPILOT01","USUBJID":"01-713-1256","DOMAIN":"ADEX","CUMEXDOS":0,"AVGDOSE":0,"TOTEXDUR":188,"TRT01A":"Placebo","TRT01AN":1,"SAFFL":"Y","ITTFL":"Y","COMPFL":"Y","SITEID":"713","AGE":71,"SEX":"M","RACE":"WHITE","ARMCD":"Pbo","TRTSDT":"2012-09-19","TRTEDT":"2013-03-25","TRTDUR":188},{"STUDYID":"CDISCPILOT01","USUBJID":"01-713-1269","DOMAIN":"ADEX","CUMEXDOS":0,"AVGDOSE":0,"TOTEXDUR":183,"TRT01A":"Placebo","TRT01AN":1,"SAFFL":"Y","ITTFL":"Y","COMPFL":"Y","SITEID":"713","AGE":73,"SEX":"M","RACE":"WHITE","ARMCD":"Pbo","TRTSDT":"2014-01-27","TRTEDT":"2014-07-28","TRTDUR":183},{"STUDYID":"CDISCPILOT01","USUBJID":"01-713-1448","DOMAIN":"ADEX","CUMEXDOS":6372,"AVGDOSE":54,"TOTEXDUR":118,"TRT01A":"Xanomeline Low Dose","TRT01AN":2,"SAFFL":"Y","ITTFL":"Y","COMPFL":"N","SITEID":"713","AGE":71,"SEX":"F","RACE":"WHITE","ARMCD":"Xan_Lo","TRTSDT":"2014-01-19","TRTEDT":"2014-05-16","TRTDUR":118},{"STUDYID":"CDISCPILOT01","USUBJID":"01-714-1035","DOMAIN":"ADEX","CUMEXDOS":0,"AVGDOSE":0,"TOTEXDUR":183,"TRT01A":"Placebo","TRT01AN":1,"SAFFL":"Y","ITTFL":"Y","COMPFL":"Y","SITEID":"714","AGE":88,"SEX":"F","RACE":"WHITE","ARMCD":"Pbo","TRTSDT":"2014-04-17","TRTEDT":"2014-10-16","TRTDUR":183},{"STUDYID":"CDISCPILOT01","USUBJID":"01-714-1068","DOMAIN":"ADEX","CUMEXDOS":3348,"AVGDOSE":54,"TOTEXDUR":62,"TRT01A":"Xanomeline Low Dose","TRT01AN":2,"SAFFL":"Y","ITTFL":"Y","COMPFL":"N","SITEID":"714","AGE":79,"SEX":"F","RACE":"WHITE","ARMCD":"Xan_Lo","TRTSDT":"2013-08-08","TRTEDT":"2013-10-08","TRTDUR":62},{"STUDYID":"CDISCPILOT01","USUBJID":"01-714-1195","DOMAIN":"ADEX","CUMEXDOS":9774,"AVGDOSE":54,"TOTEXDUR":181,"TRT01A":"Xanomeline Low Dose","TRT01AN":2,"SAFFL":"Y","ITTFL":"Y","COMPFL":"Y","SITEID":"714","AGE":75,"SEX":"M","RACE":"WHITE","ARMCD":"Xan_Lo","TRTSDT":"2013-04-26","TRTEDT":"2013-10-23","TRTDUR":181},{"STUDYID":"CDISCPILOT01","USUBJID":"01-714-1288","DOMAIN":"ADEX","CUMEXDOS":14931,"AVGDOSE":76.1786,"TOTEXDUR":196,"TRT01A":"Xanomeline High Dose","TRT01AN":3,"SAFFL":"Y","ITTFL":"Y","COMPFL":"Y","SITEID":"714","AGE":77,"SEX":"M","RACE":"BLACK OR AFRICAN AMERICAN","ARMCD":"Xan_Hi","TRTSDT":"2013-12-04","TRTEDT":"2014-06-17","TRTDUR":196},{"STUDYID":"CDISCPILOT01","USUBJID":"01-714-1375","DOMAIN":"ADEX","CUMEXDOS":0,"AVGDOSE":0,"TOTEXDUR":194,"TRT01A":"Placebo","TRT01AN":1,"SAFFL":"Y","ITTFL":"Y","COMPFL":"Y","SITEID":"714","AGE":78,"SEX":"F","RACE":"WHITE","ARMCD":"Pbo","TRTSDT":"2013-02-26","TRTEDT":"2013-09-07","TRTDUR":194},{"STUDYID":"CDISCPILOT01","USUBJID":"01-714-1425","DOMAIN":"ADEX","CUMEXDOS":270,"AVGDOSE":54,"TOTEXDUR":5,"TRT01A":"Xanomeline High Dose","TRT01AN":3,"SAFFL":"Y","ITTFL":"Y","COMPFL":"N","SITEID":"714","AGE":81,"SEX":"M","RACE":"WHITE","ARMCD":"Xan_Hi","TRTSDT":"2013-08-15","TRTEDT":"2013-08-19","TRTDUR":5},{"STUDYID":"CDISCPILOT01","USUBJID":"01-715-1085","DOMAIN":"ADEX","CUMEXDOS":9936,"AVGDOSE":54,"TOTEXDUR":184,"TRT01A":"Xanomeline Low Dose","TRT01AN":2,"SAFFL":"Y","ITTFL":"Y","COMPFL":"Y","SITEID":"715","AGE":77,"SEX":"F","RACE":"WHITE","ARMCD":"Xan_Lo","TRTSDT":"2013-02-16","TRTEDT":"2013-08-18","TRTDUR":184},{"STUDYID":"CDISCPILOT01","USUBJID":"01-715-1107","DOMAIN":"ADEX","CUMEXDOS":3834,"AVGDOSE":54,"TOTEXDUR":71,"TRT01A":"Xanomeline Low Dose","TRT01AN":2,"SAFFL":"Y","ITTFL":"Y","COMPFL":"N","SITEID":"715","AGE":65,"SEX":"M","RACE":"WHITE","ARMCD":"Xan_Lo","TRTSDT":"2013-02-26","TRTEDT":"2013-05-07","TRTDUR":71},{"STUDYID":"CDISCPILOT01","USUBJID":"01-715-1155","DOMAIN":"ADEX","CUMEXDOS":0,"AVGDOSE":0,"TOTEXDUR":44,"TRT01A":"Placebo","TRT01AN":1,"SAFFL":"Y","ITTFL":"Y","COMPFL":"N","SITEID":"715","AGE":59,"SEX":"F","RACE":"WHITE","ARMCD":"Pbo","TRTSDT":"2013-12-13","TRTEDT":"2014-01-25","TRTDUR":44},{"STUDYID":"CDISCPILOT01","USUBJID":"01-715-1207","DOMAIN":"ADEX","CUMEXDOS":0,"AVGDOSE":0,"TOTEXDUR":191,"TRT01A":"Placebo","TRT01AN":1,"SAFFL":"Y","ITTFL":"Y","COMPFL":"Y","SITEID":"715","AGE":78,"SEX":"F","RACE":"WHITE","ARMCD":"Pbo","TRTSDT":"2012-11-18","TRTEDT":"2013-05-27","TRTDUR":191},{"STUDYID":"CDISCPILOT01","USUBJID":"01-715-1319","DOMAIN":"ADEX","CUMEXDOS":972,"AVGDOSE":57.1765,"TOTEXDUR":17,"TRT01A":"Xanomeline High Dose","TRT01AN":3,"SAFFL":"Y","ITTFL":"Y","COMPFL":"N","SITEID":"715","AGE":65,"SEX":"M","RACE":"WHITE","ARMCD":"Xan_Hi","TRTSDT":"2013-02-17","TRTEDT":"2013-03-05","TRTDUR":17},{"STUDYID":"CDISCPILOT01","USUBJID":"01-715-1321","DOMAIN":"ADEX","CUMEXDOS":5238,"AVGDOSE":74.8286,"TOTEXDUR":70,"TRT01A":"Xanomeline High Dose","TRT01AN":3,"SAFFL":"Y","ITTFL":"Y","COMPFL":"N","SITEID":"715","AGE":75,"SEX":"F","RACE":"WHITE","ARMCD":"Xan_Hi","TRTSDT":"2014-02-11","TRTEDT":"2014-04-21","TRTDUR":70},{"STUDYID":"CDISCPILOT01","USUBJID":"01-715-1397","DOMAIN":"ADEX","CUMEXDOS":0,"AVGDOSE":0,"TOTEXDUR":183,"TRT01A":"Placebo","TRT01AN":1,"SAFFL":"Y","ITTFL":"Y","COMPFL":"Y","SITEID":"715","AGE":76,"SEX":"F","RACE":"WHITE","ARMCD":"Pbo","TRTSDT":"2013-04-03","TRTEDT":"2013-10-02","TRTDUR":183},{"STUDYID":"CDISCPILOT01","USUBJID":"01-715-1405","DOMAIN":"ADEX","CUMEXDOS":108,"AVGDOSE":54,"TOTEXDUR":2,"TRT01A":"Xanomeline Low Dose","TRT01AN":2,"SAFFL":"Y","ITTFL":"Y","COMPFL":"N","SITEID":"715","AGE":69,"SEX":"M","RACE":"WHITE","ARMCD":"Xan_Lo","TRTSDT":"2013-07-06","TRTEDT":"2013-07-07","TRTDUR":2},{"STUDYID":"CDISCPILOT01","USUBJID":"01-716-1024","DOMAIN":"ADEX","CUMEXDOS":0,"AVGDOSE":0,"TOTEXDUR":196,"TRT01A":"Placebo","TRT01AN":1,"SAFFL":"Y","ITTFL":"Y","COMPFL":"Y","SITEID":"716","AGE":87,"SEX":"F","RACE":"WHITE","ARMCD":"Pbo","TRTSDT":"2012-07-09","TRTEDT":"2013-01-20","TRTDUR":196},{"STUDYID":"CDISCPILOT01","USUBJID":"01-716-1026","DOMAIN":"ADEX","CUMEXDOS":0,"AVGDOSE":0,"TOTEXDUR":198,"TRT01A":"Placebo","TRT01AN":1,"SAFFL":"Y","ITTFL":"Y","COMPFL":"Y","SITEID":"716","AGE":73,"SEX":"F","RACE":"WHITE","ARMCD":"Pbo","TRTSDT":"2014-04-02","TRTEDT":"2014-10-16","TRTDUR":198},{"STUDYID":"CDISCPILOT01","USUBJID":"01-716-1030","DOMAIN":"ADEX","CUMEXDOS":324,"AVGDOSE":54,"TOTEXDUR":6,"TRT01A":"Xanomeline High Dose","TRT01AN":3,"SAFFL":"Y","ITTFL":"Y","COMPFL":"N","SITEID":"716","AGE":83,"SEX":"F","RACE":"WHITE","ARMCD":"Xan_Hi","TRTSDT":"2013-12-28","TRTEDT":"2014-01-02","TRTDUR":6},{"STUDYID":"CDISCPILOT01","USUBJID":"01-716-1044","DOMAIN":"ADEX","CUMEXDOS":0,"AVGDOSE":0,"TOTEXDUR":191,"TRT01A":"Placebo","TRT01AN":1,"SAFFL":"Y","ITTFL":"Y","COMPFL":"Y","SITEID":"716","AGE":74,"SEX":"M","RACE":"WHITE","ARMCD":"Pbo","TRTSDT":"2013-04-27","TRTEDT":"2013-11-03","TRTDUR":191},{"STUDYID":"CDISCPILOT01","USUBJID":"01-716-1063","DOMAIN":"ADEX","CUMEXDOS":5886,"AVGDOSE":54,"TOTEXDUR":109,"TRT01A":"Xanomeline Low Dose","TRT01AN":2,"SAFFL":"Y","ITTFL":"Y","COMPFL":"N","SITEID":"716","AGE":80,"SEX":"M","RACE":"WHITE","ARMCD":"Xan_Lo","TRTSDT":"2013-05-09","TRTEDT":"2013-08-25","TRTDUR":109},{"STUDYID":"CDISCPILOT01","USUBJID":"01-716-1071","DOMAIN":"ADEX","CUMEXDOS":4050,"AVGDOSE":73.6364,"TOTEXDUR":55,"TRT01A":"Xanomeline High Dose","TRT01AN":3,"SAFFL":"Y","ITTFL":"Y","COMPFL":"N","SITEID":"716","AGE":78,"SEX":"F","RACE":"WHITE","ARMCD":"Xan_Hi","TRTSDT":"2013-06-08","TRTEDT":"2013-08-01","TRTDUR":55},{"STUDYID":"CDISCPILOT01","USUBJID":"01-716-1094","DOMAIN":"ADEX","CUMEXDOS":1998,"AVGDOSE":54,"TOTEXDUR":37,"TRT01A":"Xanomeline Low Dose","TRT01AN":2,"SAFFL":"Y","ITTFL":"Y","COMPFL":"N","SITEID":"716","AGE":82,"SEX":"M","RACE":"WHITE","ARMCD":"Xan_Lo","TRTSDT":"2012-12-19","TRTEDT":"2013-01-24","TRTDUR":37},{"STUDYID":"CDISCPILOT01","USUBJID":"01-716-1103","DOMAIN":"ADEX","CUMEXDOS":9990,"AVGDOSE":54,"TOTEXDUR":185,"TRT01A":"Xanomeline Low Dose","TRT01AN":2,"SAFFL":"Y","ITTFL":"Y","COMPFL":"Y","SITEID":"716","AGE":79,"SEX":"M","RACE":"WHITE","ARMCD":"Xan_Lo","TRTSDT":"2014-03-20","TRTEDT":"2014-09-20","TRTDUR":185},{"STUDYID":"CDISCPILOT01","USUBJID":"01-716-1108","DOMAIN":"ADEX","CUMEXDOS":0,"AVGDOSE":0,"TOTEXDUR":180,"TRT01A":"Placebo","TRT01AN":1,"SAFFL":"Y","ITTFL":"Y","COMPFL":"Y","SITEID":"716","AGE":86,"SEX":"F","RACE":"WHITE","ARMCD":"Pbo","TRTSDT":"2013-02-12","TRTEDT":"2013-08-10","TRTDUR":180},{"STUDYID":"CDISCPILOT01","USUBJID":"01-716-1151","DOMAIN":"ADEX","CUMEXDOS":5400,"AVGDOSE":54,"TOTEXDUR":100,"TRT01A":"Xanomeline Low Dose","TRT01AN":2,"SAFFL":"Y","ITTFL":"Y","COMPFL":"N","SITEID":"716","AGE":83,"SEX":"F","RACE":"WHITE","ARMCD":"Xan_Lo","TRTSDT":"2013-02-01","TRTEDT":"2013-05-11","TRTDUR":100},{"STUDYID":"CDISCPILOT01","USUBJID":"01-716-1157","DOMAIN":"ADEX","CUMEXDOS":9990,"AVGDOSE":54,"TOTEXDUR":185,"TRT01A":"Xanomeline Low Dose","TRT01AN":2,"SAFFL":"Y","ITTFL":"Y","COMPFL":"Y","SITEID":"716","AGE":85,"SEX":"M","RACE":"WHITE","ARMCD":"Xan_Lo","TRTSDT":"2013-10-02","TRTEDT":"2014-04-04","TRTDUR":185},{"STUDYID":"CDISCPILOT01","USUBJID":"01-716-1160","DOMAIN":"ADEX","CUMEXDOS":0,"AVGDOSE":0,"TOTEXDUR":190,"TRT01A":"Placebo","TRT01AN":1,"SAFFL":"Y","ITTFL":"Y","COMPFL":"Y","SITEID":"716","AGE":83,"SEX":"F","RACE":"WHITE","ARMCD":"Pbo","TRTSDT":"2013-04-05","TRTEDT":"2013-10-11","TRTDUR":190},{"STUDYID":"CDISCPILOT01","USUBJID":"01-716-1167","DOMAIN":"ADEX","CUMEXDOS":10098,"AVGDOSE":54,"TOTEXDUR":187,"TRT01A":"Xanomeline Low Dose","TRT01AN":2,"SAFFL":"Y","ITTFL":"Y","COMPFL":"Y","SITEID":"716","AGE":68,"SEX":"M","RACE":"WHITE","ARMCD":"Xan_Lo","TRTSDT":"2012-10-08","TRTEDT":"2013-04-12","TRTDUR":187},{"STUDYID":"CDISCPILOT01","USUBJID":"01-716-1177","DOMAIN":"ADEX","CUMEXDOS":0,"AVGDOSE":0,"TOTEXDUR":185,"TRT01A":"Placebo","TRT01AN":1,"SAFFL":"Y","ITTFL":"Y","COMPFL":"Y","SITEID":"716","AGE":72,"SEX":"M","RACE":"WHITE","ARMCD":"Pbo","TRTSDT":"2014-09-02","TRTEDT":"2015-03-05","TRTDUR":185},{"STUDYID":"CDISCPILOT01","USUBJID":"01-716-1189","DOMAIN":"ADEX","CUMEXDOS":11070,"AVGDOSE":77.9577,"TOTEXDUR":142,"TRT01A":"Xanomeline High Dose","TRT01AN":3,"SAFFL":"Y","ITTFL":"Y","COMPFL":"N","SITEID":"716","AGE":81,"SEX":"M","RACE":"WHITE","ARMCD":"Xan_Hi","TRTSDT":"2012-10-09","TRTEDT":"2013-02-27","TRTDUR":142},{"STUDYID":"CDISCPILOT01","USUBJID":"01-716-1229","DOMAIN":"ADEX","CUMEXDOS":2835,"AVGDOSE":70.875,"TOTEXDUR":40,"TRT01A":"Xanomeline High Dose","TRT01AN":3,"SAFFL":"Y","ITTFL":"Y","COMPFL":"N","SITEID":"716","AGE":73,"SEX":"F","RACE":"WHITE","ARMCD":"Xan_Hi","TRTSDT":"2013-02-20","TRTEDT":"2013-03-31","TRTDUR":40},{"STUDYID":"CDISCPILOT01","USUBJID":"01-716-1298","DOMAIN":"ADEX","CUMEXDOS":4428,"AVGDOSE":54,"TOTEXDUR":82,"TRT01A":"Xanomeline Low Dose","TRT01AN":2,"SAFFL":"Y","ITTFL":"Y","COMPFL":"N","SITEID":"716","AGE":76,"SEX":"F","RACE":"WHITE","ARMCD":"Xan_Lo","TRTSDT":"2013-04-08","TRTEDT":"2013-06-28","TRTDUR":82},{"STUDYID":"CDISCPILOT01","USUBJID":"01-716-1308","DOMAIN":"ADEX","CUMEXDOS":0,"AVGDOSE":0,"TOTEXDUR":41,"TRT01A":"Placebo","TRT01AN":1,"SAFFL":"Y","ITTFL":"Y","COMPFL":"N","SITEID":"716","AGE":76,"SEX":"F","RACE":"WHITE","ARMCD":"Pbo","TRTSDT":"2013-08-28","TRTEDT":"2013-10-07","TRTDUR":41},{"STUDYID":"CDISCPILOT01","USUBJID":"01-716-1311","DOMAIN":"ADEX","CUMEXDOS":7074,"AVGDOSE":54,"TOTEXDUR":131,"TRT01A":"Xanomeline Low Dose","TRT01AN":2,"SAFFL":"Y","ITTFL":"Y","COMPFL":"N","SITEID":"716","AGE":78,"SEX":"M","RACE":"WHITE","ARMCD":"Xan_Lo","TRTSDT":"2014-05-14","TRTEDT":"2014-09-21","TRTDUR":131},{"STUDYID":"CDISCPILOT01","USUBJID":"01-716-1364","DOMAIN":"ADEX","CUMEXDOS":14553,"AVGDOSE":76.5947,"TOTEXDUR":190,"TRT01A":"Xanomeline High Dose","TRT01AN":3,"SAFFL":"Y","ITTFL":"Y","COMPFL":"Y","SITEID":"716","AGE":84,"SEX":"F","RACE":"WHITE","ARMCD":"Xan_Hi","TRTSDT":"2013-07-04","TRTEDT":"2014-01-09","TRTDUR":190},{"STUDYID":"CDISCPILOT01","USUBJID":"01-716-1373","DOMAIN":"ADEX","CUMEXDOS":5697,"AVGDOSE":74.9605,"TOTEXDUR":76,"TRT01A":"Xanomeline High Dose","TRT01AN":3,"SAFFL":"Y","ITTFL":"Y","COMPFL":"N","SITEID":"716","AGE":74,"SEX":"M","RACE":"WHITE","ARMCD":"Xan_Hi","TRTSDT":"2012-12-14","TRTEDT":"2013-02-27","TRTDUR":76},{"STUDYID":"CDISCPILOT01","USUBJID":"01-716-1418","DOMAIN":"ADEX","CUMEXDOS":15417,"AVGDOSE":77.085,"TOTEXDUR":200,"TRT01A":"Xanomeline High Dose","TRT01AN":3,"SAFFL":"Y","ITTFL":"Y","COMPFL":"Y","SITEID":"716","AGE":80,"SEX":"F","RACE":"WHITE","ARMCD":"Xan_Hi","TRTSDT":"2013-05-05","TRTEDT":"2013-11-20","TRTDUR":200},{"STUDYID":"CDISCPILOT01","USUBJID":"01-716-1441","DOMAIN":"ADEX","CUMEXDOS":0,"AVGDOSE":0,"TOTEXDUR":182,"TRT01A":"Placebo","TRT01AN":1,"SAFFL":"Y","ITTFL":"Y","COMPFL":"Y","SITEID":"716","AGE":85,"SEX":"M","RACE":"WHITE","ARMCD":"Pbo","TRTSDT":"2014-01-22","TRTEDT":"2014-07-22","TRTDUR":182},{"STUDYID":"CDISCPILOT01","USUBJID":"01-716-1447","DOMAIN":"ADEX","CUMEXDOS":14202,"AVGDOSE":77.1848,"TOTEXDUR":184,"TRT01A":"Xanomeline High Dose","TRT01AN":3,"SAFFL":"Y","ITTFL":"Y","COMPFL":"Y","SITEID":"716","AGE":72,"SEX":"F","RACE":"WHITE","ARMCD":"Xan_Hi","TRTSDT":"2013-12-16","TRTEDT":"2014-06-17","TRTDUR":184},{"STUDYID":"CDISCPILOT01","USUBJID":"01-717-1004","DOMAIN":"ADEX","CUMEXDOS":9936,"AVGDOSE":54,"TOTEXDUR":184,"TRT01A":"Xanomeline Low Dose","TRT01AN":2,"SAFFL":"Y","ITTFL":"Y","COMPFL":"Y","SITEID":"717","AGE":80,"SEX":"F","RACE":"WHITE","ARMCD":"Xan_Lo","TRTSDT":"2014-01-14","TRTEDT":"2014-07-16","TRTDUR":184},{"STUDYID":"CDISCPILOT01","USUBJID":"01-717-1109","DOMAIN":"ADEX","CUMEXDOS":14148,"AVGDOSE":77.3115,"TOTEXDUR":183,"TRT01A":"Xanomeline High Dose","TRT01AN":3,"SAFFL":"Y","ITTFL":"Y","COMPFL":"Y","SITEID":"717","AGE":84,"SEX":"M","RACE":"WHITE","ARMCD":"Xan_Hi","TRTSDT":"2014-01-27","TRTEDT":"2014-07-28","TRTDUR":183},{"STUDYID":"CDISCPILOT01","USUBJID":"01-717-1174","DOMAIN":"ADEX","CUMEXDOS":14067,"AVGDOSE":76.4511,"TOTEXDUR":184,"TRT01A":"Xanomeline High Dose","TRT01AN":3,"SAFFL":"Y","ITTFL":"Y","COMPFL":"Y","SITEID":"717","AGE":73,"SEX":"M","RACE":"WHITE","ARMCD":"Xan_Hi","TRTSDT":"2013-01-22","TRTEDT":"2013-07-24","TRTDUR":184},{"STUDYID":"CDISCPILOT01","USUBJID":"01-717-1201","DOMAIN":"ADEX","CUMEXDOS":0,"AVGDOSE":0,"TOTEXDUR":65,"TRT01A":"Placebo","TRT01AN":1,"SAFFL":"Y","ITTFL":"Y","COMPFL":"N","SITEID":"717","AGE":85,"SEX":"F","RACE":"WHITE","ARMCD":"Pbo","TRTSDT":"2013-12-19","TRTEDT":"2014-02-21","TRTDUR":65},{"STUDYID":"CDISCPILOT01","USUBJID":"01-717-1344","DOMAIN":"ADEX","CUMEXDOS":0,"AVGDOSE":0,"TOTEXDUR":63,"TRT01A":"Placebo","TRT01AN":1,"SAFFL":"Y","ITTFL":"Y","COMPFL":"N","SITEID":"717","AGE":64,"SEX":"F","RACE":"WHITE","ARMCD":"Pbo","TRTSDT":"2014-01-11","TRTEDT":"2014-03-14","TRTDUR":63},{"STUDYID":"CDISCPILOT01","USUBJID":"01-717-1357","DOMAIN":"ADEX","CUMEXDOS":13122,"AVGDOSE":78.5749,"TOTEXDUR":167,"TRT01A":"Xanomeline High Dose","TRT01AN":3,"SAFFL":"Y","ITTFL":"Y","COMPFL":"Y","SITEID":"717","AGE":77,"SEX":"M","RACE":"WHITE","ARMCD":"Xan_Hi","TRTSDT":"2013-05-01","TRTEDT":"2013-10-14","TRTDUR":167},{"STUDYID":"CDISCPILOT01","USUBJID":"01-717-1446","DOMAIN":"ADEX","CUMEXDOS":9936,"AVGDOSE":54,"TOTEXDUR":184,"TRT01A":"Xanomeline Low Dose","TRT01AN":2,"SAFFL":"Y","ITTFL":"Y","COMPFL":"Y","SITEID":"717","AGE":75,"SEX":"F","RACE":"WHITE","ARMCD":"Xan_Lo","TRTSDT":"2013-09-01","TRTEDT":"2014-03-03","TRTDUR":184},{"STUDYID":"CDISCPILOT01","USUBJID":"01-718-1066","DOMAIN":"ADEX","CUMEXDOS":540,"AVGDOSE":54,"TOTEXDUR":10,"TRT01A":"Xanomeline Low Dose","TRT01AN":2,"SAFFL":"Y","ITTFL":"Y","COMPFL":"N","SITEID":"718","AGE":79,"SEX":"F","RACE":"WHITE","ARMCD":"Xan_Lo","TRTSDT":"2013-07-07","TRTEDT":"2013-07-16","TRTDUR":10},{"STUDYID":"CDISCPILOT01","USUBJID":"01-718-1079","DOMAIN":"ADEX","CUMEXDOS":2322,"AVGDOSE":54,"TOTEXDUR":43,"TRT01A":"Xanomeline Low Dose","TRT01AN":2,"SAFFL":"Y","ITTFL":"Y","COMPFL":"N","SITEID":"718","AGE":67,"SEX":"F","RACE":"WHITE","ARMCD":"Xan_Lo","TRTSDT":"2012-09-19","TRTEDT":"2012-10-31","TRTDUR":43},{"STUDYID":"CDISCPILOT01","USUBJID":"01-718-1101","DOMAIN":"ADEX","CUMEXDOS":12960,"AVGDOSE":78.5455,"TOTEXDUR":165,"TRT01A":"Xanomeline High Dose","TRT01AN":3,"SAFFL":"Y","ITTFL":"Y","COMPFL":"Y","SITEID":"718","AGE":82,"SEX":"M","RACE":"BLACK OR AFRICAN AMERICAN","ARMCD":"Xan_Hi","TRTSDT":"2013-02-17","TRTEDT":"2013-07-31","TRTDUR":165},{"STUDYID":"CDISCPILOT01","USUBJID":"01-718-1139","DOMAIN":"ADEX","CUMEXDOS":0,"AVGDOSE":0,"TOTEXDUR":183,"TRT01A":"Placebo","TRT01AN":1,"SAFFL":"Y","ITTFL":"Y","COMPFL":"Y","SITEID":"718","AGE":77,"SEX":"M","RACE":"WHITE","ARMCD":"Pbo","TRTSDT":"2013-05-19","TRTEDT":"2013-11-17","TRTDUR":183},{"STUDYID":"CDISCPILOT01","USUBJID":"01-718-1150","DOMAIN":"ADEX","CUMEXDOS":0,"AVGDOSE":0,"TOTEXDUR":192,"TRT01A":"Placebo","TRT01AN":1,"SAFFL":"Y","ITTFL":"Y","COMPFL":"Y","SITEID":"718","AGE":73,"SEX":"F","RACE":"WHITE","ARMCD":"Pbo","TRTSDT":"2013-01-19","TRTEDT":"2013-07-29","TRTDUR":192},{"STUDYID":"CDISCPILOT01","USUBJID":"01-718-1170","DOMAIN":"ADEX","CUMEXDOS":1458,"AVGDOSE":54,"TOTEXDUR":27,"TRT01A":"Xanomeline Low Dose","TRT01AN":2,"SAFFL":"Y","ITTFL":"Y","COMPFL":"N","SITEID":"718","AGE":80,"SEX":"F","RACE":"WHITE","ARMCD":"Xan_Lo","TRTSDT":"2013-09-16","TRTEDT":"2013-10-12","TRTDUR":27},{"STUDYID":"CDISCPILOT01","USUBJID":"01-718-1172","DOMAIN":"ADEX","CUMEXDOS":0,"AVGDOSE":0,"TOTEXDUR":70,"TRT01A":"Placebo","TRT01AN":1,"SAFFL":"Y","ITTFL":"Y","COMPFL":"N","SITEID":"718","AGE":74,"SEX":"M","RACE":"WHITE","ARMCD":"Pbo","TRTSDT":"2013-09-21","TRTEDT":"2013-11-29","TRTDUR":70},{"STUDYID":"CDISCPILOT01","USUBJID":"01-718-1250","DOMAIN":"ADEX","CUMEXDOS":7182,"AVGDOSE":54,"TOTEXDUR":133,"TRT01A":"Xanomeline Low Dose","TRT01AN":2,"SAFFL":"Y","ITTFL":"Y","COMPFL":"N","SITEID":"718","AGE":82,"SEX":"F","RACE":"WHITE","ARMCD":"Xan_Lo","TRTSDT":"2013-09-21","TRTEDT":"2014-01-31","TRTDUR":133},{"STUDYID":"CDISCPILOT01","USUBJID":"01-718-1254","DOMAIN":"ADEX","CUMEXDOS":9936,"AVGDOSE":54,"TOTEXDUR":184,"TRT01A":"Xanomeline Low Dose","TRT01AN":2,"SAFFL":"Y","ITTFL":"Y","COMPFL":"Y","SITEID":"718","AGE":78,"SEX":"M","RACE":"WHITE","ARMCD":"Xan_Lo","TRTSDT":"2013-07-10","TRTEDT":"2014-01-09","TRTDUR":184},{"STUDYID":"CDISCPILOT01","USUBJID":"01-718-1328","DOMAIN":"ADEX","CUMEXDOS":5859,"AVGDOSE":76.0909,"TOTEXDUR":77,"TRT01A":"Xanomeline High Dose","TRT01AN":3,"SAFFL":"Y","ITTFL":"Y","COMPFL":"N","SITEID":"718","AGE":86,"SEX":"M","RACE":"WHITE","ARMCD":"Xan_Hi","TRTSDT":"2013-02-01","TRTEDT":"2013-04-18","TRTDUR":77},{"STUDYID":"CDISCPILOT01","USUBJID":"01-718-1355","DOMAIN":"ADEX","CUMEXDOS":0,"AVGDOSE":0,"TOTEXDUR":183,"TRT01A":"Placebo","TRT01AN":1,"SAFFL":"Y","ITTFL":"Y","COMPFL":"Y","SITEID":"718","AGE":79,"SEX":"M","RACE":"WHITE","ARMCD":"Pbo","TRTSDT":"2013-02-28","TRTEDT":"2013-08-29","TRTDUR":183},{"STUDYID":"CDISCPILOT01","USUBJID":"01-718-1371","DOMAIN":"ADEX","CUMEXDOS":7587,"AVGDOSE":77.4184,"TOTEXDUR":98,"TRT01A":"Xanomeline High Dose","TRT01AN":3,"SAFFL":"Y","ITTFL":"Y","COMPFL":"N","SITEID":"718","AGE":69,"SEX":"F","RACE":"WHITE","ARMCD":"Xan_Hi","TRTSDT":"2013-04-26","TRTEDT":"2013-08-01","TRTDUR":98},{"STUDYID":"CDISCPILOT01","USUBJID":"01-718-1427","DOMAIN":"ADEX","CUMEXDOS":4212,"AVGDOSE":73.8947,"TOTEXDUR":57,"TRT01A":"Xanomeline High Dose","TRT01AN":3,"SAFFL":"Y","ITTFL":"Y","COMPFL":"N","SITEID":"718","AGE":74,"SEX":"F","RACE":"BLACK OR AFRICAN AMERICAN","ARMCD":"Xan_Hi","TRTSDT":"2012-12-17","TRTEDT":"2013-02-11","TRTDUR":57}]
