[{"STUDYID":"CDISCPILOT01","USUBJID":"01-701-1015","DOMAIN":"ADQS","PARAMCD":"NPTOT9","PARAM":"NPI-X 9-Domain Total Score","PARAMN":1,"AVISIT":"Baseline","AVISITN":0,"ADT":"2014-01-02","ADY":1,"AVAL":0,"BASE":0,"CHG":null,"ABLFL":"Y","TRT01A":"Placebo","TRT01AN":1,"SAFFL":"Y","ITTFL":"Y","EFFFL":"Y","COMPFL":"Y","SITEID":"701","AGE":63,"AGEGR1":"<65","SEX":"F","RACE":"WHITE","ARMCD":"Pbo","TRTSDT":"2014-01-02","TRTEDT":"2014-07-02"},{"STUDYID":"CDISCPILOT01","USUBJID":"01-701-1015","DOMAIN":"ADQS","PARAMCD":"NPTOT9","PARAM":"NPI-X 9-Domain Total Score","PARAMN":1,"AVISIT":"Week 2","AVISITN":2,"ADT":"2014-01-16","ADY":15,"AVAL":0,"BASE":0,"CHG":0,"ABLFL":null,"TRT01A":"Placebo","TRT01AN":1,"SAFFL":"Y","ITTFL":"Y","EFFFL":"Y","COMPFL":"Y","SITEID":"701","AGE":63,"AGEGR1":"<65","SEX":"F","RACE":"WHITE","ARMCD":"Pbo","TRTSDT":"2014-01-02","TRTEDT":"2014-07-02"},{"STUDYID":"CDISCPILOT01","USUBJID":"01-701-1015","DOMAIN":"ADQS","PARAMCD":"NPTOT9","PARAM":"NPI-X 9-Domain Total Score","PARAMN":1,"AVISIT":"Week 4","AVISITN":4,"ADT":"2014-01-30","ADY":29,"AVAL":0,"BASE":0,"CHG":0,"ABLFL":null,"TRT01A":"Placebo","TRT01AN":1,"SAFFL":"Y","ITTFL":"Y","EFFFL":"Y","COMPFL":"Y","SITEID":"701","AGE":63,"AGEGR1":"<65","SEX":"F","RACE":"WHITE","ARMCD":"Pbo","TRTSDT":"2014-01-02","TRTEDT":"2014-07-02"},{"STUDYID":"CDISCPILOT01","USUBJID":"01-701-1015","DOMAIN":"ADQS","PARAMCD":"NPTOT9","PARAM":"NPI-X 9-Domain Total Score","PARAMN":1,"AVISIT":"Week 6","AVISITN":6,"ADT":"2014-02-12","ADY":42,"AVAL":0,"BASE":0,"CHG":0,"ABLFL":null,"TRT01A":"Placebo","TRT01AN":1,"SAFFL":"Y","ITTFL":"Y","EFFFL":"Y","COMPFL":"Y","SITEID":"701","AGE":63,"AGEGR1":"<65","SEX":"F","RACE":"WHITE","ARMCD":"Pbo","TRTSDT":"2014-01-02","TRTEDT":"2014-07-02"},{"STUDYID":"CDISCPILOT01","USUBJID":"01-701-1015","DOMAIN":"ADQS","PARAMCD":"NPTOT9","PARAM":"NPI-X 9-Domain Total Score","PARAMN":1,"AVISIT":"Week 8","AVISITN":8,"ADT":"2014-03-05","ADY":63,"AVAL":0,"BASE":0,"CHG":0,"ABLFL":null,"TRT01A":"Placebo","TRT01AN":1,"SAFFL":"Y","ITTFL":"Y","EFFFL":"Y","COMPFL":"Y","SITEID":"701","AGE":63,"AGEGR1":"<65","SEX":"F","RACE":"WHITE","ARMCD":"Pbo","TRTSDT":"2014-01-02","TRTEDT":"2014-07-02"},{"STUDYID":"CDISCPILOT01","USUBJID":"01-701-1015","DOMAIN":"ADQS","PARAMCD":"NPTOT9","PARAM":"NPI-X 9-Domain Total Score","PARAMN":1,"AVISIT":"Week 12","AVISITN":12,"ADT":"2014-03-26","ADY":84,"AVAL":0,"BASE":0,"CHG":0,"ABLFL":null,"TRT01A":"Placebo","TRT01AN":1,"SAFFL":"Y","ITTFL":"Y","EFFFL":"Y","COMPFL":"Y","SITEID":"701","AGE":63,"AGEGR1":"<65","SEX":"F","RACE":"WHITE","ARMCD":"Pbo","TRTSDT":"2014-01-02","TRTEDT":"2014-07-02"},{"STUDYID":"CDISCPILOT01","USUBJID":"01-701-1015","DOMAIN":"ADQS","PARAMCD":"NPTOT9","PARAM":"NPI-X 9-Domain Total Score","PARAMN":1,"AVISIT":"Week 14","AVISITN":14,"ADT":"2014-04-09","ADY":98,"AVAL":0,"BASE":0,"CHG":0,"ABLFL":null,"TRT01A":"Placebo","TRT01AN":1,"SAFFL":"Y","ITTFL":"Y","EFFFL":"Y","COMPFL":"Y","SITEID":"701","AGE":63,"AGEGR1":"<65","SEX":"F","RACE":"WHITE","ARMCD":"Pbo","TRTSDT":"2014-01-02","TRTEDT":"2014-07-02"},{"STUDYID":"CDISCPILOT01","USUBJID":"01-701-1015","DOMAIN":"ADQS","PARAMCD":"NPTOT9","PARAM":"NPI-X 9-Domain Total Score","PARAMN":1,"AVISIT":"Week 16","AVISITN":16,"ADT":"2014-05-07","ADY":126,"AVAL":0,"BASE":0,"CHG":0,"ABLFL":null,"TRT01A":"Placebo","TRT01AN":1,"SAFFL":"Y","ITTFL":"Y","EFFFL":"Y","COMPFL":"Y","SITEID":"701","AGE":63,"AGEGR1":"<65","SEX":"F","RACE":"WHITE","ARMCD":"Pbo","TRTSDT":"2014-01-02","TRTEDT":"2014-07-02"},{"STUDYID":"CDISCPILOT01","USUBJID":"01-701-1015","DOMAIN":"ADQS","PARAMCD":"NPTOT9","PARAM":"NPI-X 9-Domain Total Score","PARAMN":1,"AVISIT":"Week 20","AVISITN":20,"ADT":"2014-05-21","ADY":140,"AVAL":0,"BASE":0,"CHG":0,"ABLFL":null,"TRT01A":"Placebo","TRT01AN":1,"SAFFL":"Y","ITTFL":"Y","EFFFL":"Y","COMPFL":"Y","SITEID":"701","AGE":63,"AGEGR1":"<65","SEX":"F","RACE":"WHITE","ARMCD":"Pbo","TRTSDT":"2014-01-02","TRTEDT":"2014-07-02"},{"STUDYID":"CDISCPILOT01","USUBJID":"01-701-1015","DOMAIN":"ADQS","PARAMCD":"NPTOT9","PARAM":"NPI-X 9-Domain Total Score","PARAMN":1,"AVISIT":"Week 22","AVISITN":22,"ADT":"2014-06-04","ADY":154,"AVAL":0,"BASE":0,"CHG":0,"ABLFL":null,"TRT01A":"Placebo","TRT01AN":1,"SAFFL":"Y","ITTFL":"Y","EFFFL":"Y","COMPFL":"Y","SITEID":"701","AGE":63,"AGEGR1":"<65","SEX":"F","RACE":"WHITE","ARMCD":"Pbo","TRTSDT":"2014-01-02","TRTEDT":"2014-07-02"},{"STUDYID":"CDISCPILOT01","USUBJID":"01-701-1015","DOMAIN":"ADQS","PARAMCD":"NPTOT9","PARAM":"NPI-X 9-Domain Total Score","PARAMN":1,"AVISIT":"Week 24","AVISITN":24,"ADT":"2014-06-18","ADY":168,"AVAL":0,"BASE":0,"CHG":0,"ABLFL":null,"TRT01A":"Placebo","TRT01AN":1,"SAFFL":"Y","ITTFL":"Y","EFFFL":"Y","COMPFL":"Y","SITEID":"701","AGE":63,"AGEGR1":"<65","SEX":"F","RACE":"WHITE","ARMCD":"Pbo","TRTSDT":"2014-01-02","TRTEDT":"2014-07-02"},{"STUDYID":"CDISCPILOT01","USUBJID":"01-701-1015","DOMAIN":"ADQS","PARAMCD":"NPTMN24","PARAM":"Mean NPI-X 9-Domain Total Score (Weeks 4-24)","PARAMN":2,"AVISIT":"Weeks 4-24 Mean","AVISITN":99,"ADT":null,"ADY":null,"AVAL":0,"BASE":0,"CHG":0,"ABLFL":null,"TRT01A":"Placebo","TRT01AN":1,"SAFFL":"Y","ITTFL":"Y","EFFFL":"Y","COMPFL":"Y","SITEID":"701","AGE":63,"AGEGR1":"<65","SEX":"F","RACE":"WHITE","ARMCD":"Pbo","TRTSDT":"2014-01-02","TRTEDT":"2014-07-02"},{"STUDYID":"CDISCPILOT01","USUBJID":"01-701-1023","DOMAIN":"ADQS","PARAMCD":"NPTOT9","PARAM":"NPI-X 9-Domain Total Score","PARAMN":1,"AVISIT":"Baseline","AVISITN":0,"ADT":"2012-08-05","ADY":1,"AVAL":6,"BASE":6,"CHG":null,"ABLFL":"Y","TRT01A":"Placebo","TRT01AN":1,"SAFFL":"Y","ITTFL":"Y","EFFFL":"Y","COMPFL":"N","SITEID":"701","AGE":64,"AGEGR1":"<65","SEX":"M","RACE":"WHITE","ARMCD":"Pbo","TRTSDT":"2012-08-05","TRTEDT":"2012-09-01"},{"STUDYID":"CDISCPILOT01","USUBJID":"01-701-1023","DOMAIN":"ADQS","PARAMCD":"NPTOT9","PARAM":"NPI-X 9-Domain Total Score","PARAMN":1,"AVISIT":"Week 2","AVISITN":2,"ADT":"2012-08-27","ADY":23,"AVAL":6,"BASE":6,"CHG":0,"ABLFL":null,"TRT01A":"Placebo","TRT01AN":1,"SAFFL":"Y","ITTFL":"Y","EFFFL":"Y","COMPFL":"N","SITEID":"701","AGE":64,"AGEGR1":"<65","SEX":"M","RACE":"WHITE","ARMCD":"Pbo","TRTSDT":"2012-08-05","TRTEDT":"2012-09-01"},{"STUDYID":"CDISCPILOT01","USUBJID":"01-701-1023","DOMAIN":"ADQS","PARAMCD":"NPTOT9","PARAM":"NPI-X 9-Domain Total Score","PARAMN":1,"AVISIT":"Week 4","AVISITN":4,"ADT":"2012-09-02","ADY":29,"AVAL":6,"BASE":6,"CHG":0,"ABLFL":null,"TRT01A":"Placebo","TRT01AN":1,"SAFFL":"Y","ITTFL":"Y","EFFFL":"Y","COMPFL":"N","SITEID":"701","AGE":64,"AGEGR1":"<65","SEX":"M","RACE":"WHITE","ARMCD":"Pbo","TRTSDT":"2012-08-05","TRTEDT":"2012-09-01"},{"STUDYID":"CDISCPILOT01","USUBJID":"01-701-1023","DOMAIN":"ADQS","PARAMCD":"NPTMN24","PARAM":"Mean NPI-X 9-Domain Total Score (Weeks 4-24)","PARAMN":2,"AVISIT":"Weeks 4-24 Mean","AVISITN":99,"ADT":null,"ADY":null,"AVAL":6,"BASE":6,"CHG":0,"ABLFL":null,"TRT01A":"Placebo","TRT01AN":1,"SAFFL":"Y","ITTFL":"Y","EFFFL":"Y","COMPFL":"N","SITEID":"701","AGE":64,"AGEGR1":"<65","SEX":"M","RACE":"WHITE","ARMCD":"Pbo","TRTSDT":"2012-08-05","TRTEDT":"2012-09-01"},{"STUDYID":"CDISCPILOT01","USUBJID":"01-701-1028","DOMAIN":"ADQS","PARAMCD":"NPTOT9","PARAM":"NPI-X 9-Domain Total Score","PARAMN":1,"AVISIT":"Baseline","AVISITN":0,"ADT":"2013-07-19","ADY":1,"AVAL":0,"BASE":0,"CHG":null,"ABLFL":"Y","TRT01A":"Xanomeline High Dose","TRT01AN":3,"SAFFL":"Y","ITTFL":"Y","EFFFL":"Y","COMPFL":"Y","SITEID":"701","AGE":71,"AGEGR1":"65-80","SEX":"M","RACE":"WHITE","ARMCD":"Xan_Hi","TRTSDT":"2013-07-19","TRTEDT":"2014-01-14"},{"STUDYID":"CDISCPILOT01","USUBJID":"01-701-1028","DOMAIN":"ADQS","PARAMCD":"NPTOT9","PARAM":"NPI-X 9-Domain Total Score","PARAMN":1,"AVISIT":"Week 2","AVISITN":2,"ADT":"2013-08-01","ADY":14,"AVAL":0,"BASE":0,"CHG":0,"ABLFL":null,"TRT01A":"Xanomeline High Dose","TRT01AN":3,"SAFFL":"Y","ITTFL":"Y","EFFFL":"Y","COMPFL":"Y","SITEID":"701","AGE":71,"AGEGR1":"65-80","SEX":"M","RACE":"WHITE","ARMCD":"Xan_Hi","TRTSDT":"2013-07-19","TRTEDT":"2014-01-14"},{"STUDYID":"CDISCPILOT01","USUBJID":"01-701-1028","DOMAIN":"ADQS","PARAMCD":"NPTOT9","PARAM":"NPI-X 9-Domain Total Score","PARAMN":1,"AVISIT":"Week 4","AVISITN":4,"ADT":"2013-08-14","ADY":27,"AVAL":0,"BASE":0,"CHG":0,"ABLFL":null,"TRT01A":"Xanomeline High Dose","TRT01AN":3,"SAFFL":"Y","ITTFL":"Y","EFFFL":"Y","COMPFL":"Y","SITEID":"701","AGE":71,"AGEGR1":"65-80","SEX":"M","RACE":"WHITE","ARMCD":"Xan_Hi","TRTSDT":"2013-07-19","TRTEDT":"2014-01-14"},{"STUDYID":"CDISCPILOT01","USUBJID":"01-701-1028","DOMAIN":"ADQS","PARAMCD":"NPTOT9","PARAM":"NPI-X 9-Domain Total Score","PARAMN":1,"AVISIT":"Week 6","AVISITN":6,"ADT":"2013-08-29","ADY":42,"AVAL":0,"BASE":0,"CHG":0,"ABLFL":null,"TRT01A":"Xanomeline High Dose","TRT01AN":3,"SAFFL":"Y","ITTFL":"Y","EFFFL":"Y","COMPFL":"Y","SITEID":"701","AGE":71,"AGEGR1":"65-80","SEX":"M","RACE":"WHITE","ARMCD":"Xan_Hi","TRTSDT":"2013-07-19","TRTEDT":"2014-01-14"},{"STUDYID":"CDISCPILOT01","USUBJID":"01-701-1028","DOMAIN":"ADQS","PARAMCD":"NPTOT9","PARAM":"NPI-X 9-Domain Total Score","PARAMN":1,"AVISIT":"Week 8","AVISITN":8,"ADT":"2013-09-10","ADY":54,"AVAL":0,"BASE":0,"CHG":0,"ABLFL":null,"TRT01A":"Xanomeline High Dose","TRT01AN":3,"SAFFL":"Y","ITTFL":"Y","EFFFL":"Y","COMPFL":"Y","SITEID":"701","AGE":71,"AGEGR1":"65-80","SEX":"M","RACE":"WHITE","ARMCD":"Xan_Hi","TRTSDT":"2013-07-19","TRTEDT":"2014-01-14"},{"STUDYID":"CDISCPILOT01","USUBJID":"01-701-1028","DOMAIN":"ADQS","PARAMCD":"NPTOT9","PARAM":"NPI-X 9-Domain Total Score","PARAMN":1,"AVISIT":"Week 10","AVISITN":10,"ADT":"2013-09-24","ADY":68,"AVAL":0,"BASE":0,"CHG":0,"ABLFL":null,"TRT01A":"Xanomeline High Dose","TRT01AN":3,"SAFFL":"Y","ITTFL":"Y","EFFFL":"Y","COMPFL":"Y","SITEID":"701","AGE":71,"AGEGR1":"65-80","SEX":"M","RACE":"WHITE","ARMCD":"Xan_Hi","TRTSDT":"2013-07-19","TRTEDT":"2014-01-14"},{"STUDYID":"CDISCPILOT01","USUBJID":"01-701-1028","DOMAIN":"ADQS","PARAMCD":"NPTOT9","PARAM":"NPI-X 9-Domain Total Score","PARAMN":1,"AVISIT":"Week 12","AVISITN":12,"ADT":"2013-10-09","ADY":83,"AVAL":0,"BASE":0,"CHG":0,"ABLFL":null,"TRT01A":"Xanomeline High Dose","TRT01AN":3,"SAFFL":"Y","ITTFL":"Y","EFFFL":"Y","COMPFL":"Y","SITEID":"701","AGE":71,"AGEGR1":"65-80","SEX":"M","RACE":"WHITE","ARMCD":"Xan_Hi","TRTSDT":"2013-07-19","TRTEDT":"2014-01-14"},{"STUDYID":"CDISCPILOT01","USUBJID":"01-701-1028","DOMAIN":"ADQS","PARAMCD":"NPTOT9","PARAM":"NPI-X 9-Domain Total Score","PARAMN":1,"AVISIT":"Week 14","AVISITN":14,"ADT":"2013-10-23","ADY":97,"AVAL":0,"BASE":0,"CHG":0,"ABLFL":null,"TRT01A":"Xanomeline High Dose","TRT01AN":3,"SAFFL":"Y","ITTFL":"Y","EFFFL":"Y","COMPFL":"Y","SITEID":"701","AGE":71,"AGEGR1":"65-80","SEX":"M","RACE":"WHITE","ARMCD":"Xan_Hi","TRTSDT":"2013-07-19","TRTEDT":"2014-01-14"},{"STUDYID":"CDISCPILOT01","USUBJID":"01-701-1028","DOMAIN":"ADQS","PARAMCD":"NPTOT9","PARAM":"NPI-X 9-Domain Total Score","PARAMN":1,"AVISIT":"Week 16","AVISITN":16,"ADT":"2013-11-06","ADY":111,"AVAL":0,"BASE":0,"CHG":0,"ABLFL":null,"TRT01A":"Xanomeline High Dose","TRT01AN":3,"SAFFL":"Y","ITTFL":"Y","EFFFL":"Y","COMPFL":"Y","SITEID":"701","AGE":71,"AGEGR1":"65-80","SEX":"M","RACE":"WHITE","ARMCD":"Xan_Hi","TRTSDT":"2013-07-19","TRTEDT":"2014-01-14"},{"STUDYID":"CDISCPILOT01","USUBJID":"01-701-1028","DOMAIN":"ADQS","PARAMCD":"NPTOT9","PARAM":"NPI-X 9-Domain Total Score","PARAMN":1,"AVISIT":"Week 18","AVISITN":18,"ADT":"2013-11-20","ADY":125,"AVAL":0,"BASE":0,"CHG":0,"ABLFL":null,"TRT01A":"Xanomeline High Dose","TRT01AN":3,"SAFFL":"Y","ITTFL":"Y","EFFFL":"Y","COMPFL":"Y","SITEID":"701","AGE":71,"AGEGR1":"65-80","SEX":"M","RACE":"WHITE","ARMCD":"Xan_Hi","TRTSDT":"2013-07-19","TRTEDT":"2014-01-14"},{"STUDYID":"CDISCPILOT01","USUBJID":"01-701-1028","DOMAIN":"ADQS","PARAMCD":"NPTOT9","PARAM":"NPI-X 9-Domain Total Score","PARAMN":1,"AVISIT":"Week 20","AVISITN":20,"ADT":"2013-12-04","ADY":139,"AVAL":0,"BASE":0,"CHG":0,"ABLFL":null,"TRT01A":"Xanomeline High Dose","TRT01AN":3,"SAFFL":"Y","ITTFL":"Y","EFFFL":"Y","COMPFL":"Y","SITEID":"701","AGE":71,"AGEGR1":"65-80","SEX":"M","RACE":"WHITE","ARMCD":"Xan_Hi","TRTSDT":"2013-07-19","TRTEDT":"2014-01-14"},{"STUDYID":"CDISCPILOT01","USUBJID":"01-701-1028","DOMAIN":"ADQS","PARAMCD":"NPTOT9","PARAM":"NPI-X 9-Domain Total Score","PARAMN":1,"AVISIT":"Week 22","AVISITN":22,"ADT":"2013-12-18","ADY":153,"AVAL":0,"BASE":0,"CHG":0,"ABLFL":null,"TRT01A":"Xanomeline High Dose","TRT01AN":3,"SAFFL":"Y","ITTFL":"Y","EFFFL":"Y","COMPFL":"Y","SITEID":"701","AGE":71,"AGEGR1":"65-80","SEX":"M","RACE":"WHITE","ARMCD":"Xan_Hi","TRTSDT":"2013-07-19","TRTEDT":"2014-01-14"},{"STUDYID":"CDISCPILOT01","USUBJID":"01-701-1028","DOMAIN":"ADQS","PARAMCD":"NPTOT9","PARAM":"NPI-X 9-Domain Total Score","PARAMN":1,"AVISIT":"Week 24","AVISITN":24,"ADT":"2014-01-06","ADY":172,"AVAL":0,"BASE":0,"CHG":0,"ABLFL":null,"TRT01A":"Xanomeline High Dose","TRT01AN":3,"SAFFL":"Y","ITTFL":"Y","EFFFL":"Y","COMPFL":"Y","SITEID":"701","AGE":71,"AGEGR1":"65-80","SEX":"M","RACE":"WHITE","ARMCD":"Xan_Hi","TRTSDT":"2013-07-19","TRTEDT":"2014-01-14"},{"STUDYID":"CDISCPILOT01","USUBJID":"01-701-1028","DOMAIN":"ADQS","PARAMCD":"NPTMN24","PARAM":"Mean NPI-X 9-Domain Total Score (Weeks 4-24)","PARAMN":2,"AVISIT":"Weeks 4-24 Mean","AVISITN":99,"ADT":null,"ADY":null,"AVAL":0,"BASE":0,"CHG":0,"ABLFL":null,"TRT01A":"Xanomeline High Dose","TRT01AN":3,"SAFFL":"Y","ITTFL":"Y","EFFFL":"Y","COMPFL":"Y","SITEID":"701","AGE":71,"AGEGR1":"65-80","SEX":"M","RACE":"WHITE","ARMCD":"Xan_Hi","TRTSDT":"2013-07-19","TRTEDT":"2014-01-14"},{"STUDYID":"CDISCPILOT01","USUBJID":"01-701-1033","DOMAIN":"ADQS","PARAMCD":"NPTOT9","PARAM":"NPI-X 9-Domain Total Score","PARAMN":1,"AVISIT":"Baseline","AVISITN":0,"ADT":"2014-03-18","ADY":1,"AVAL":1,"BASE":1,"CHG":null,"ABLFL":"Y","TRT01A":"Xanomeline Low Dose","TRT01AN":2,"SAFFL":"Y","ITTFL":"Y","EFFFL":"Y","COMPFL":"N","SITEID":"701","AGE":74,"AGEGR1":"65-80","SEX":"M","RACE":"WHITE","ARMCD":"Xan_Lo","TRTSDT":"2014-03-18","TRTEDT":"2014-03-31"},{"STUDYID":"CDISCPILOT01","USUBJID":"01-701-1033","DOMAIN":"ADQS","PARAMCD":"NPTOT9","PARAM":"NPI-X 9-Domain Total Score","PARAMN":1,"AVISIT":"Week 2","AVISITN":2,"ADT":"2014-04-01","ADY":15,"AVAL":1,"BASE":1,"CHG":0,"ABLFL":null,"TRT01A":"Xanomeline Low Dose","TRT01AN":2,"SAFFL":"Y","ITTFL":"Y","EFFFL":"Y","COMPFL":"N","SITEID":"701","AGE":74,"AGEGR1":"65-80","SEX":"M","RACE":"WHITE","ARMCD":"Xan_Lo","TRTSDT":"2014-03-18","TRTEDT":"2014-03-31"},{"STUDYID":"CDISCPILOT01","USUBJID":"01-701-1033","DOMAIN":"ADQS","PARAMCD":"NPTOT9","PARAM":"NPI-X 9-Domain Total Score","PARAMN":1,"AVISIT":"Week 4","AVISITN":4,"ADT":"2014-04-14","ADY":28,"AVAL":0,"BASE":1,"CHG":-1,"ABLFL":null,"TRT01A":"Xanomeline Low Dose","TRT01AN":2,"SAFFL":"Y","ITTFL":"Y","EFFFL":"Y","COMPFL":"N","SITEID":"701","AGE":74,"AGEGR1":"65-80","SEX":"M","RACE":"WHITE","ARMCD":"Xan_Lo","TRTSDT":"2014-03-18","TRTEDT":"2014-03-31"},{"STUDYID":"CDISCPILOT01","USUBJID":"01-701-1033","DOMAIN":"ADQS","PARAMCD":"NPTMN24","PARAM":"Mean NPI-X 9-Domain Total Score (Weeks 4-24)","PARAMN":2,"AVISIT":"Weeks 4-24 Mean","AVISITN":99,"ADT":null,"ADY":null,"AVAL":0,"BASE":1,"CHG":-1,"ABLFL":null,"TRT01A":"Xanomeline Low Dose","TRT01AN":2,"SAFFL":"Y","ITTFL":"Y","EFFFL":"Y","COMPFL":"N","SITEID":"701","AGE":74,"AGEGR1":"65-80","SEX":"M","RACE":"WHITE","ARMCD":"Xan_Lo","TRTSDT":"2014-03-18","TRTEDT":"2014-03-31"},{"STUDYID":"CDISCPILOT01","USUBJID":"01-701-1034","DOMAIN":"ADQS","PARAMCD":"NPTOT9","PARAM":"NPI-X 9-Domain Total Score","PARAMN":1,"AVISIT":"Baseline","AVISITN":0,"ADT":"2014-07-01","ADY":1,"AVAL":0,"BASE":0,"CHG":null,"ABLFL":"Y","TRT01A":"Xanomeline High Dose","TRT01AN":3,"SAFFL":"Y","ITTFL":"Y","EFFFL":"Y","COMPFL":"Y","SITEID":"701","AGE":77,"AGEGR1":"65-80","SEX":"F","RACE":"WHITE","ARMCD":"Xan_Hi","TRTSDT":"2014-07-01","TRTEDT":"2014-12-30"},{"STUDYID":"CDISCPILOT01","USUBJID":"01-701-1034","DOMAIN":"ADQS","PARAMCD":"NPTOT9","PARAM":"NPI-X 9-Domain Total Score","PARAMN":1,"AVISIT":"Week 2","AVISITN":2,"ADT":"2014-07-15","ADY":15,"AVAL":0,"BASE":0,"CHG":0,"ABLFL":null,"TRT01A":"Xanomeline High Dose","TRT01AN":3,"SAFFL":"Y","ITTFL":"Y","EFFFL":"Y","COMPFL":"Y","SITEID":"701","AGE":77,"AGEGR1":"65-80","SEX":"F","RACE":"WHITE","ARMCD":"Xan_Hi","TRTSDT":"2014-07-01","TRTEDT":"2014-12-30"},{"STUDYID":"CDISCPILOT01","USUBJID":"01-701-1034","DOMAIN":"ADQS","PARAMCD":"NPTOT9","PARAM":"NPI-X 9-Domain Total Score","PARAMN":1,"AVISIT":"Week 4","AVISITN":4,"ADT":"2014-07-29","ADY":29,"AVAL":2,"BASE":0,"CHG":2,"ABLFL":null,"TRT01A":"Xanomeline High Dose","TRT01AN":3,"SAFFL":"Y","ITTFL":"Y","EFFFL":"Y","COMPFL":"Y","SITEID":"701","AGE":77,"AGEGR1":"65-80","SEX":"F","RACE":"WHITE","ARMCD":"Xan_Hi","TRTSDT":"2014-07-01","TRTEDT":"2014-12-30"},{"STUDYID":"CDISCPILOT01","USUBJID":"01-701-1034","DOMAIN":"ADQS","PARAMCD":"NPTOT9","PARAM":"NPI-X 9-Domain Total Score","PARAMN":1,"AVISIT":"Week 6","AVISITN":6,"ADT":"2014-08-11","ADY":42,"AVAL":3,"BASE":0,"CHG":3,"ABLFL":null,"TRT01A":"Xanomeline High Dose","TRT01AN":3,"SAFFL":"Y","ITTFL":"Y","EFFFL":"Y","COMPFL":"Y","SITEID":"701","AGE":77,"AGEGR1":"65-80","SEX":"F","RACE":"WHITE","ARMCD":"Xan_Hi","TRTSDT":"2014-07-01","TRTEDT":"2014-12-30"},{"STUDYID":"CDISCPILOT01","USUBJID":"01-701-1034","DOMAIN":"ADQS","PARAMCD":"NPTOT9","PARAM":"NPI-X 9-Domain Total Score","PARAMN":1,"AVISIT":"Week 8","AVISITN":8,"ADT":"2014-08-26","ADY":57,"AVAL":0,"BASE":0,"CHG":0,"ABLFL":null,"TRT01A":"Xanomeline High Dose","TRT01AN":3,"SAFFL":"Y","ITTFL":"Y","EFFFL":"Y","COMPFL":"Y","SITEID":"701","AGE":77,"AGEGR1":"65-80","SEX":"F","RACE":"WHITE","ARMCD":"Xan_Hi","TRTSDT":"2014-07-01","TRTEDT":"2014-12-30"},{"STUDYID":"CDISCPILOT01","USUBJID":"01-701-1034","DOMAIN":"ADQS","PARAMCD":"NPTOT9","PARAM":"NPI-X 9-Domain Total Score","PARAMN":1,"AVISIT":"Week 10","AVISITN":10,"ADT":"2014-09-09","ADY":71,"AVAL":1,"BASE":0,"CHG":1,"ABLFL":null,"TRT01A":"Xanomeline High Dose","TRT01AN":3,"SAFFL":"Y","ITTFL":"Y","EFFFL":"Y","COMPFL":"Y","SITEID":"701","AGE":77,"AGEGR1":"65-80","SEX":"F","RACE":"WHITE","ARMCD":"Xan_Hi","TRTSDT":"2014-07-01","TRTEDT":"2014-12-30"},{"STUDYID":"CDISCPILOT01","USUBJID":"01-701-1034","DOMAIN":"ADQS","PARAMCD":"NPTOT9","PARAM":"NPI-X 9-Domain Total Score","PARAMN":1,"AVISIT":"Week 12","AVISITN":12,"ADT":"2014-09-25","ADY":87,"AVAL":0,"BASE":0,"CHG":0,"ABLFL":null,"TRT01A":"Xanomeline High Dose","TRT01AN":3,"SAFFL":"Y","ITTFL":"Y","EFFFL":"Y","COMPFL":"Y","SITEID":"701","AGE":77,"AGEGR1":"65-80","SEX":"F","RACE":"WHITE","ARMCD":"Xan_Hi","TRTSDT":"2014-07-01","TRTEDT":"2014-12-30"},{"STUDYID":"CDISCPILOT01","USUBJID":"01-701-1034","DOMAIN":"ADQS","PARAMCD":"NPTOT9","PARAM":"NPI-X 9-Domain Total Score","PARAMN":1,"AVISIT":"Week 14","AVISITN":14,"ADT":"2014-10-07","ADY":99,"AVAL":0,"BASE":0,"CHG":0,"ABLFL":null,"TRT01A":"Xanomeline High Dose","TRT01AN":3,"SAFFL":"Y","ITTFL":"Y","EFFFL":"Y","COMPFL":"Y","SITEID":"701","AGE":77,"AGEGR1":"65-80","SEX":"F","RACE":"WHITE","ARMCD":"Xan_Hi","TRTSDT":"2014-07-01","TRTEDT":"2014-12-30"},{"STUDYID":"CDISCPILOT01","USUBJID":"01-701-1034","DOMAIN":"ADQS","PARAMCD":"NPTOT9","PARAM":"NPI-X 9-Domain Total Score","PARAMN":1,"AVISIT":"Week 16","AVISITN":16,"ADT":"2014-10-21","ADY":113,"AVAL":0,"BASE":0,"CHG":0,"ABLFL":null,"TRT01A":"Xanomeline High Dose","TRT01AN":3,"SAFFL":"Y","ITTFL":"Y","EFFFL":"Y","COMPFL":"Y","SITEID":"701","AGE":77,"AGEGR1":"65-80","SEX":"F","RACE":"WHITE","ARMCD":"Xan_Hi","TRTSDT":"2014-07-01","TRTEDT":"2014-12-30"},{"STUDYID":"CDISCPILOT01","USUBJID":"01-701-1034","DOMAIN":"ADQS","PARAMCD":"NPTOT9","PARAM":"NPI-X 9-Domain Total Score","PARAMN":1,"AVISIT":"Week 18","AVISITN":18,"ADT":"2014-11-04","ADY":127,"AVAL":5,"BASE":0,"CHG":5,"ABLFL":null,"TRT01A":"Xanomeline High Dose","TRT01AN":3,"SAFFL":"Y","ITTFL":"Y","EFFFL":"Y","COMPFL":"Y","SITEID":"701","AGE":77,"AGEGR1":"65-80","SEX":"F","RACE":"WHITE","ARMCD":"Xan_Hi","TRTSDT":"2014-07-01","TRTEDT":"2014-12-30"},{"STUDYID":"CDISCPILOT01","USUBJID":"01-701-1034","DOMAIN":"ADQS","PARAMCD":"NPTOT9","PARAM":"NPI-X 9-Domain Total Score","PARAMN":1,"AVISIT":"Week 20","AVISITN":20,"ADT":"2014-11-18","ADY":141,"AVAL":1,"BASE":0,"CHG":1,"ABLFL":null,"TRT01A":"Xanomeline High Dose","TRT01AN":3,"SAFFL":"Y","ITTFL":"Y","EFFFL":"Y","COMPFL":"Y","SITEID":"701","AGE":77,"AGEGR1":"65-80","SEX":"F","RACE":"WHITE","ARMCD":"Xan_Hi","TRTSDT":"2014-07-01","TRTEDT":"2014-12-30"},{"STUDYID":"CDISCPILOT01","USUBJID":"01-701-1034","DOMAIN":"ADQS","PARAMCD":"NPTOT9","PARAM":"NPI-X 9-Domain Total Score","PARAMN":1,"AVISIT":"Week 22","AVISITN":22,"ADT":"2014-12-02","ADY":155,"AVAL":0,"BASE":0,"CHG":0,"ABLFL":null,"TRT01A":"Xanomeline High Dose","TRT01AN":3,"SAFFL":"Y","ITTFL":"Y","EFFFL":"Y","COMPFL":"Y","SITEID":"701","AGE":77,"AGEGR1":"65-80","SEX":"F","RACE":"WHITE","ARMCD":"Xan_Hi","TRTSDT":"2014-07-01","TRTEDT":"2014-12-30"},{"STUDYID":"CDISCPILOT01","USUBJID":"01-701-1034","DOMAIN":"ADQS","PARAMCD":"NPTOT9","PARAM":"NPI-X 9-Domain Total Score","PARAMN":1,"AVISIT":"Week 24","AVISITN":24,"ADT":"2014-12-17","ADY":170,"AVAL":1,"BASE":0,"CHG":1,"ABLFL":null,"TRT01A":"Xanomeline High Dose","TRT01AN":3,"SAFFL":"Y","ITTFL":"Y","EFFFL":"Y","COMPFL":"Y","SITEID":"701","AGE":77,"AGEGR1":"65-80","SEX":"F","RACE":"WHITE","ARMCD":"Xan_Hi","TRTSDT":"2014-07-01","TRTEDT":"2014-12-30"},{"STUDYID":"CDISCPILOT01","USUBJID":"01-701-1034","DOMAIN":"ADQS","PARAMCD":"NPTMN24","PARAM":"Mean NPI-X 9-Domain Total Score (Weeks 4-24)","PARAMN":2,"AVISIT":"Weeks 4-24 Mean","AVISITN":99,"ADT":null,"ADY":null,"AVAL":1.1818,"BASE":0,"CHG":1.1818,"ABLFL":null,"TRT01A":"Xanomeline High Dose","TRT01AN":3,"SAFFL":"Y","ITTFL":"Y","EFFFL":"Y","COMPFL":"Y","SITEID":"701","AGE":77,"AGEGR1":"65-80","SEX":"F","RACE":"WHITE","ARMCD":"Xan_Hi","TRTSDT":"2014-07-01","TRTEDT":"2014-12-30"},{"STUDYID":"CDISCPILOT01","USUBJID":"01-701-1047","DOMAIN":"ADQS","PARAMCD":"NPTOT9","PARAM":"NPI-X 9-Domain Total Score","PARAMN":1,"AVISIT":"Baseline","AVISITN":0,"ADT":"2013-02-12","ADY":1,"AVAL":2,"BASE":2,"CHG":null,"ABLFL":"Y","TRT01A":"Placebo","TRT01AN":1,"SAFFL":"Y","ITTFL":"Y","EFFFL":"Y","COMPFL":"N","SITEID":"701","AGE":85,"AGEGR1":">80","SEX":"F","RACE":"WHITE","ARMCD":"Pbo","TRTSDT":"2013-02-12","TRTEDT":"2013-03-09"},{"STUDYID":"CDISCPILOT01","USUBJID":"01-701-1047","DOMAIN":"ADQS","PARAMCD":"NPTOT9","PARAM":"NPI-X 9-Domain Total Score","PARAMN":1,"AVISIT":"Week 2","AVISITN":2,"ADT":"2013-02-25","ADY":14,"AVAL":1,"BASE":2,"CHG":-1,"ABLFL":null,"TRT01A":"Placebo","TRT01AN":1,"SAFFL":"Y","ITTFL":"Y","EFFFL":"Y","COMPFL":"N","SITEID":"701","AGE":85,"AGEGR1":">80","SEX":"F","RACE":"WHITE","ARMCD":"Pbo","TRTSDT":"2013-02-12","TRTEDT":"2013-03-09"},{"STUDYID":"CDISCPILOT01","USUBJID":"01-701-1047","DOMAIN":"ADQS","PARAMCD":"NPTMN24","PARAM":"Mean NPI-X 9-Domain Total Score (Weeks 4-24)","PARAMN":2,"AVISIT":"Weeks 4-24 Mean","AVISITN":99,"ADT":null,"ADY":null,"AVAL":null,"BASE":2,"CHG":null,"ABLFL":null,"TRT01A":"Placebo","TRT01AN":1,"SAFFL":"Y","ITTFL":"Y","EFFFL":"Y","COMPFL":"N","SITEID":"701","AGE":85,"AGEGR1":">80","SEX":"F","RACE":"WHITE","ARMCD":"Pbo","TRTSDT":"2013-02-12","TRTEDT":"2013-03-09"},{"STUDYID":"CDISCPILOT01","USUBJID":"01-701-1097","DOMAIN":"ADQS","PARAMCD":"NPTOT9","PARAM":"NPI-X 9-Domain Total Score","PARAMN":1,"AVISIT":"Baseline","AVISITN":0,"ADT":"2014-01-01","ADY":1,"AVAL":4,"BASE":4,"CHG":null,"ABLFL":"Y","TRT01A":"Xanomeline Low Dose","TRT01AN":2,"SAFFL":"Y","ITTFL":"Y","EFFFL":"Y","COMPFL":"Y","SITEID":"701","AGE":68,"AGEGR1":"65-80","SEX":"M","RACE":"WHITE","ARMCD":"Xan_Lo","TRTSDT":"2014-01-01","TRTEDT":"2014-07-09"},{"STUDYID":"CDISCPILOT01","USUBJID":"01-701-1097","DOMAIN":"ADQS","PARAMCD":"NPTOT9","PARAM":"NPI-X 9-Domain Total Score","PARAMN":1,"AVISIT":"Week 2","AVISITN":2,"ADT":"2014-01-15","ADY":15,"AVAL":4,"BASE":4,"CHG":0,"ABLFL":null,"TRT01A":"Xanomeline Low Dose","TRT01AN":2,"SAFFL":"Y","ITTFL":"Y","EFFFL":"Y","COMPFL":"Y","SITEID":"701","AGE":68,"AGEGR1":"65-80","SEX":"M","RACE":"WHITE","ARMCD":"Xan_Lo","TRTSDT":"2014-01-01","TRTEDT":"2014-07-09"},{"STUDYID":"CDISCPILOT01","USUBJID":"01-701-1097","DOMAIN":"ADQS","PARAMCD":"NPTOT9","PARAM":"NPI-X 9-Domain Total Score","PARAMN":1,"AVISIT":"Week 4","AVISITN":4,"ADT":"2014-01-29","ADY":29,"AVAL":1,"BASE":4,"CHG":-3,"ABLFL":null,"TRT01A":"Xanomeline Low Dose","TRT01AN":2,"SAFFL":"Y","ITTFL":"Y","EFFFL":"Y","COMPFL":"Y","SITEID":"701","AGE":68,"AGEGR1":"65-80","SEX":"M","RACE":"WHITE","ARMCD":"Xan_Lo","TRTSDT":"2014-01-01","TRTEDT":"2014-07-09"},{"STUDYID":"CDISCPILOT01","USUBJID":"01-701-1097","DOMAIN":"ADQS","PARAMCD":"NPTOT9","PARAM":"NPI-X 9-Domain Total Score","PARAMN":1,"AVISIT":"Week 6","AVISITN":6,"ADT":"2014-02-11","ADY":42,"AVAL":3,"BASE":4,"CHG":-1,"ABLFL":null,"TRT01A":"Xanomeline Low Dose","TRT01AN":2,"SAFFL":"Y","ITTFL":"Y","EFFFL":"Y","COMPFL":"Y","SITEID":"701","AGE":68,"AGEGR1":"65-80","SEX":"M","RACE":"WHITE","ARMCD":"Xan_Lo","TRTSDT":"2014-01-01","TRTEDT":"2014-07-09"},{"STUDYID":"CDISCPILOT01","USUBJID":"01-701-1097","DOMAIN":"ADQS","PARAMCD":"NPTOT9","PARAM":"NPI-X 9-Domain Total Score","PARAMN":1,"AVISIT":"Week 8","AVISITN":8,"ADT":"2014-02-26","ADY":57,"AVAL":2,"BASE":4,"CHG":-2,"ABLFL":null,"TRT01A":"Xanomeline Low Dose","TRT01AN":2,"SAFFL":"Y","ITTFL":"Y","EFFFL":"Y","COMPFL":"Y","SITEID":"701","AGE":68,"AGEGR1":"65-80","SEX":"M","RACE":"WHITE","ARMCD":"Xan_Lo","TRTSDT":"2014-01-01","TRTEDT":"2014-07-09"},{"STUDYID":"CDISCPILOT01","USUBJID":"01-701-1097","DOMAIN":"ADQS","PARAMCD":"NPTOT9","PARAM":"NPI-X 9-Domain Total Score","PARAMN":1,"AVISIT":"Week 12","AVISITN":12,"ADT":"2014-03-26","ADY":85,"AVAL":3,"BASE":4,"CHG":-1,"ABLFL":null,"TRT01A":"Xanomeline Low Dose","TRT01AN":2,"SAFFL":"Y","ITTFL":"Y","EFFFL":"Y","COMPFL":"Y","SITEID":"701","AGE":68,"AGEGR1":"65-80","SEX":"M","RACE":"WHITE","ARMCD":"Xan_Lo","TRTSDT":"2014-01-01","TRTEDT":"2014-07-09"},{"STUDYID":"CDISCPILOT01","USUBJID":"01-701-1097","DOMAIN":"ADQS","PARAMCD":"NPTOT9","PARAM":"NPI-X 9-Domain Total Score","PARAMN":1,"AVISIT":"Week 14","AVISITN":14,"ADT":"2014-04-09","ADY":99,"AVAL":1,"BASE":4,"CHG":-3,"ABLFL":null,"TRT01A":"Xanomeline Low Dose","TRT01AN":2,"SAFFL":"Y","ITTFL":"Y","EFFFL":"Y","COMPFL":"Y","SITEID":"701","AGE":68,"AGEGR1":"65-80","SEX":"M","RACE":"WHITE","ARMCD":"Xan_Lo","TRTSDT":"2014-01-01","TRTEDT":"2014-07-09"},{"STUDYID":"CDISCPILOT01","USUBJID":"01-701-1097","DOMAIN":"ADQS","PARAMCD":"NPTOT9","PARAM":"NPI-X 9-Domain Total Score","PARAMN":1,"AVISIT":"Week 16","AVISITN":16,"ADT":"2014-04-23","ADY":113,"AVAL":0,"BASE":4,"CHG":-4,"ABLFL":null,"TRT01A":"Xanomeline Low Dose","TRT01AN":2,"SAFFL":"Y","ITTFL":"Y","EFFFL":"Y","COMPFL":"Y","SITEID":"701","AGE":68,"AGEGR1":"65-80","SEX":"M","RACE":"WHITE","ARMCD":"Xan_Lo","TRTSDT":"2014-01-01","TRTEDT":"2014-07-09"},{"STUDYID":"CDISCPILOT01","USUBJID":"01-701-1097","DOMAIN":"ADQS","PARAMCD":"NPTOT9","PARAM":"NPI-X 9-Domain Total Score","PARAMN":1,"AVISIT":"Week 18","AVISITN":18,"ADT":"2014-05-07","ADY":127,"AVAL":1,"BASE":4,"CHG":-3,"ABLFL":null,"TRT01A":"Xanomeline Low Dose","TRT01AN":2,"SAFFL":"Y","ITTFL":"Y","EFFFL":"Y","COMPFL":"Y","SITEID":"701","AGE":68,"AGEGR1":"65-80","SEX":"M","RACE":"WHITE","ARMCD":"Xan_Lo","TRTSDT":"2014-01-01","TRTEDT":"2014-07-09"},{"STUDYID":"CDISCPILOT01","USUBJID":"01-701-1097","DOMAIN":"ADQS","PARAMCD":"NPTOT9","PARAM":"NPI-X 9-Domain Total Score","PARAMN":1,"AVISIT":"Week 20","AVISITN":20,"ADT":"2014-05-21","ADY":141,"AVAL":3,"BASE":4,"CHG":-1,"ABLFL":null,"TRT01A":"Xanomeline Low Dose","TRT01AN":2,"SAFFL":"Y","ITTFL":"Y","EFFFL":"Y","COMPFL":"Y","SITEID":"701","AGE":68,"AGEGR1":"65-80","SEX":"M","RACE":"WHITE","ARMCD":"Xan_Lo","TRTSDT":"2014-01-01","TRTEDT":"2014-07-09"},{"STUDYID":"CDISCPILOT01","USUBJID":"01-701-1097","DOMAIN":"ADQS","PARAMCD":"NPTOT9","PARAM":"NPI-X 9-Domain Total Score","PARAMN":1,"AVISIT":"Week 22","AVISITN":22,"ADT":"2014-06-04","ADY":155,"AVAL":3,"BASE":4,"CHG":-1,"ABLFL":null,"TRT01A":"Xanomeline Low Dose","TRT01AN":2,"SAFFL":"Y","ITTFL":"Y","EFFFL":"Y","COMPFL":"Y","SITEID":"701","AGE":68,"AGEGR1":"65-80","SEX":"M","RACE":"WHITE","ARMCD":"Xan_Lo","TRTSDT":"2014-01-01","TRTEDT":"2014-07-09"},{"STUDYID":"CDISCPILOT01","USUBJID":"01-701-1097","DOMAIN":"ADQS","PARAMCD":"NPTOT9","PARAM":"NPI-X 9-Domain Total Score","PARAMN":1,"AVISIT":"Week 24","AVISITN":24,"ADT":"2014-06-18","ADY":169,"AVAL":0,"BASE":4,"CHG":-4,"ABLFL":null,"TRT01A":"Xanomeline Low Dose","TRT01AN":2,"SAFFL":"Y","ITTFL":"Y","EFFFL":"Y","COMPFL":"Y","SITEID":"701","AGE":68,"AGEGR1":"65-80","SEX":"M","RACE":"WHITE","ARMCD":"Xan_Lo","TRTSDT":"2014-01-01","TRTEDT":"2014-07-09"},{"STUDYID":"CDISCPILOT01","USUBJID":"01-701-1097","DOMAIN":"ADQS","PARAMCD":"NPTMN24","PARAM":"Mean NPI-X 9-Domain Total Score (Weeks 4-24)","PARAMN":2,"AVISIT":"Weeks 4-24 Mean","AVISITN":99,"ADT":null,"ADY":null,"AVAL":1.7,"BASE":4,"CHG":-2.3,"ABLFL":null,"TRT01A":"Xanomeline Low Dose","TRT01AN":2,"SAFFL":"Y","ITTFL":"Y","EFFFL":"Y","COMPFL":"Y","SITEID":"701","AGE":68,"AGEGR1":"65-80","SEX":"M","RACE":"WHITE","ARMCD":"Xan_Lo","TRTSDT":"2014-01-01","TRTEDT":"2014-07-09"},{"STUDYID":"CDISCPILOT01","USUBJID":"01-701-1111","DOMAIN":"ADQS","PARAMCD":"NPTOT9","PARAM":"NPI-X 9-Domain Total Score","PARAMN":1,"AVISIT":"Baseline","AVISITN":0,"ADT":"2012-09-07","ADY":1,"AVAL":2,"BASE":2,"CHG":null,"ABLFL":"Y","TRT01A":"Xanomeline Low Dose","TRT01AN":2,"SAFFL":"Y","ITTFL":"Y","EFFFL":"Y","COMPFL":"N","SITEID":"701","AGE":81,"AGEGR1":">80","SEX":"F","RACE":"WHITE","ARMCD":"Xan_Lo","TRTSDT":"2012-09-07","TRTEDT":"2012-09-16"},{"STUDYID":"CDISCPILOT01","USUBJID":"01-701-1111","DOMAIN":"ADQS","PARAMCD":"NPTOT9","PARAM":"NPI-X 9-Domain Total Score","PARAMN":1,"AVISIT":"Week 2","AVISITN":2,"ADT":"2012-09-17","ADY":11,"AVAL":1,"BASE":2,"CHG":-1,"ABLFL":null,"TRT01A":"Xanomeline Low Dose","TRT01AN":2,"SAFFL":"Y","ITTFL":"Y","EFFFL":"Y","COMPFL":"N","SITEID":"701","AGE":81,"AGEGR1":">80","SEX":"F","RACE":"WHITE","ARMCD":"Xan_Lo","TRTSDT":"2012-09-07","TRTEDT":"2012-09-16"},{"STUDYID":"CDISCPILOT01","USUBJID":"01-701-1111","DOMAIN":"ADQS","PARAMCD":"NPTMN24","PARAM":"Mean NPI-X 9-Domain Total Score (Weeks 4-24)","PARAMN":2,"AVISIT":"Weeks 4-24 Mean","AVISITN":99,"ADT":null,"ADY":null,"AVAL":null,"BASE":2,"CHG":null,"ABLFL":null,"TRT01A":"Xanomeline Low Dose","TRT01AN":2,"SAFFL":"Y","ITTFL":"Y","EFFFL":"Y","COMPFL":"N","SITEID":"701","AGE":81,"AGEGR1":">80","SEX":"F","RACE":"WHITE","ARMCD":"Xan_Lo","TRTSDT":"2012-09-07","TRTEDT":"2012-09-16"},{"STUDYID":"CDISCPILOT01","USUBJID":"01-701-1115","DOMAIN":"ADQS","PARAMCD":"NPTOT9","PARAM":"NPI-X 9-Domain Total Score","PARAMN":1,"AVISIT":"Baseline","AVISITN":0,"ADT":"2012-11-30","ADY":1,"AVAL":1,"BASE":1,"CHG":null,"ABLFL":"Y","TRT01A":"Xanomeline Low Dose","TRT01AN":2,"SAFFL":"Y","ITTFL":"Y","EFFFL":"Y","COMPFL":"N","SITEID":"701","AGE":84,"AGEGR1":">80","SEX":"M","RACE":"WHITE","ARMCD":"Xan_Lo","TRTSDT":"2012-11-30","TRTEDT":"2013-01-23"},{"STUDYID":"CDISCPILOT01","USUBJID":"01-701-1115","DOMAIN":"ADQS","PARAMCD":"NPTOT9","PARAM":"NPI-X 9-Domain Total Score","PARAMN":1,"AVISIT":"Week 2","AVISITN":2,"ADT":"2012-12-13","ADY":14,"AVAL":0,"BASE":1,"CHG":-1,"ABLFL":null,"TRT01A":"Xanomeline Low Dose","TRT01AN":2,"SAFFL":"Y","ITTFL":"Y","EFFFL":"Y","COMPFL":"N","SITEID":"701","AGE":84,"AGEGR1":">80","SEX":"M","RACE":"WHITE","ARMCD":"Xan_Lo","TRTSDT":"2012-11-30","TRTEDT":"2013-01-23"},{"STUDYID":"CDISCPILOT01","USUBJID":"01-701-1115","DOMAIN":"ADQS","PARAMCD":"NPTOT9","PARAM":"NPI-X 9-Domain Total Score","PARAMN":1,"AVISIT":"Week 4","AVISITN":4,"ADT":"2012-12-26","ADY":27,"AVAL":0,"BASE":1,"CHG":-1,"ABLFL":null,"TRT01A":"Xanomeline Low Dose","TRT01AN":2,"SAFFL":"Y","ITTFL":"Y","EFFFL":"Y","COMPFL":"N","SITEID":"701","AGE":84,"AGEGR1":">80","SEX":"M","RACE":"WHITE","ARMCD":"Xan_Lo","TRTSDT":"2012-11-30","TRTEDT":"2013-01-23"},{"STUDYID":"CDISCPILOT01","USUBJID":"01-701-1115","DOMAIN":"ADQS","PARAMCD":"NPTOT9","PARAM":"NPI-X 9-Domain Total Score","PARAMN":1,"AVISIT":"Week 6","AVISITN":6,"ADT":"2013-01-10","ADY":42,"AVAL":0,"BASE":1,"CHG":-1,"ABLFL":null,"TRT01A":"Xanomeline Low Dose","TRT01AN":2,"SAFFL":"Y","ITTFL":"Y","EFFFL":"Y","COMPFL":"N","SITEID":"701","AGE":84,"AGEGR1":">80","SEX":"M","RACE":"WHITE","ARMCD":"Xan_Lo","TRTSDT":"2012-11-30","TRTEDT":"2013-01-23"},{"STUDYID":"CDISCPILOT01","USUBJID":"01-701-1115","DOMAIN":"ADQS","PARAMCD":"NPTOT9","PARAM":"NPI-X 9-Domain Total Score","PARAMN":1,"AVISIT":"Week 8","AVISITN":8,"ADT":"2013-01-23","ADY":55,"AVAL":0,"BASE":1,"CHG":-1,"ABLFL":null,"TRT01A":"Xanomeline Low Dose","TRT01AN":2,"SAFFL":"Y","ITTFL":"Y","EFFFL":"Y","COMPFL":"N","SITEID":"701","AGE":84,"AGEGR1":">80","SEX":"M","RACE":"WHITE","ARMCD":"Xan_Lo","TRTSDT":"2012-11-30","TRTEDT":"2013-01-23"},{"STUDYID":"CDISCPILOT01","USUBJID":"01-701-1115","DOMAIN":"ADQS","PARAMCD":"NPTMN24","PARAM":"Mean NPI-X 9-Domain Total Score (Weeks 4-24)","PARAMN":2,"AVISIT":"Weeks 4-24 Mean","AVISITN":99,"ADT":null,"ADY":null,"AVAL":0,"BASE":1,"CHG":-1,"ABLFL":null,"TRT01A":"Xanomeline Low Dose","TRT01AN":2,"SAFFL":"Y","ITTFL":"Y","EFFFL":"Y","COMPFL":"N","SITEID":"701","AGE":84,"AGEGR1":">80","SEX":"M","RACE":"WHITE","ARMCD":"Xan_Lo","TRTSDT":"2012-11-30","TRTEDT":"2013-01-23"},{"STUDYID":"CDISCPILOT01","USUBJID":"01-701-1118","DOMAIN":"ADQS","PARAMCD":"NPTOT9","PARAM":"NPI-X 9-Domain Total Score","PARAMN":1,"AVISIT":"Baseline","AVISITN":0,"ADT":"2014-03-12","ADY":1,"AVAL":0,"BASE":0,"CHG":null,"ABLFL":"Y","TRT01A":"Placebo","TRT01AN":1,"SAFFL":"Y","ITTFL":"Y","EFFFL":"Y","COMPFL":"Y","SITEID":"701","AGE":52,"AGEGR1":"<65","SEX":"M","RACE":"WHITE","ARMCD":"Pbo","TRTSDT":"2014-03-12","TRTEDT":"2014-09-09"},{"STUDYID":"CDISCPILOT01","USUBJID":"01-701-1118","DOMAIN":"ADQS","PARAMCD":"NPTOT9","PARAM":"NPI-X 9-Domain Total Score","PARAMN":1,"AVISIT":"Week 2","AVISITN":2,"ADT":"2014-03-26","ADY":15,"AVAL":0,"BASE":0,"CHG":0,"ABLFL":null,"TRT01A":"Placebo","TRT01AN":1,"SAFFL":"Y","ITTFL":"Y","EFFFL":"Y","COMPFL":"Y","SITEID":"701","AGE":52,"AGEGR1":"<65","SEX":"M","RACE":"WHITE","ARMCD":"Pbo","TRTSDT":"2014-03-12","TRTEDT":"2014-09-09"},{"STUDYID":"CDISCPILOT01","USUBJID":"01-701-1118","DOMAIN":"ADQS","PARAMCD":"NPTOT9","PARAM":"NPI-X 9-Domain Total Score","PARAMN":1,"AVISIT":"Week 4","AVISITN":4,"ADT":"2014-04-09","ADY":29,"AVAL":0,"BASE":0,"CHG":0,"ABLFL":null,"TRT01A":"Placebo","TRT01AN":1,"SAFFL":"Y","ITTFL":"Y","EFFFL":"Y","COMPFL":"Y","SITEID":"701","AGE":52,"AGEGR1":"<65","SEX":"M","RACE":"WHITE","ARMCD":"Pbo","TRTSDT":"2014-03-12","TRTEDT":"2014-09-09"},{"STUDYID":"CDISCPILOT01","USUBJID":"01-701-1118","DOMAIN":"ADQS","PARAMCD":"NPTOT9","PARAM":"NPI-X 9-Domain Total Score","PARAMN":1,"AVISIT":"Week 6","AVISITN":6,"ADT":"2014-04-23","ADY":43,"AVAL":0,"BASE":0,"CHG":0,"ABLFL":null,"TRT01A":"Placebo","TRT01AN":1,"SAFFL":"Y","ITTFL":"Y","EFFFL":"Y","COMPFL":"Y","SITEID":"701","AGE":52,"AGEGR1":"<65","SEX":"M","RACE":"WHITE","ARMCD":"Pbo","TRTSDT":"2014-03-12","TRTEDT":"2014-09-09"},{"STUDYID":"CDISCPILOT01","USUBJID":"01-701-1118","DOMAIN":"ADQS","PARAMCD":"NPTOT9","PARAM":"NPI-X 9-Domain Total Score","PARAMN":1,"AVISIT":"Week 8","AVISITN":8,"ADT":"2014-05-08","ADY":58,"AVAL":0,"BASE":0,"CHG":0,"ABLFL":null,"TRT01A":"Placebo","TRT01AN":1,"SAFFL":"Y","ITTFL":"Y","EFFFL":"Y","COMPFL":"Y","SITEID":"701","AGE":52,"AGEGR1":"<65","SEX":"M","RACE":"WHITE","ARMCD":"Pbo","TRTSDT":"2014-03-12","TRTEDT":"2014-09-09"},{"STUDYID":"CDISCPILOT01","USUBJID":"01-701-1118","DOMAIN":"ADQS","PARAMCD":"NPTOT9","PARAM":"NPI-X 9-Domain Total Score","PARAMN":1,"AVISIT":"Week 10","AVISITN":10,"ADT":"2014-05-21","ADY":71,"AVAL":0,"BASE":0,"CHG":0,"ABLFL":null,"TRT01A":"Placebo","TRT01AN":1,"SAFFL":"Y","ITTFL":"Y","EFFFL":"Y","COMPFL":"Y","SITEID":"701","AGE":52,"AGEGR1":"<65","SEX":"M","RACE":"WHITE","ARMCD":"Pbo","TRTSDT":"2014-03-12","TRTEDT":"2014-09-09"},{"STUDYID":"CDISCPILOT01","USUBJID":"01-701-1118","DOMAIN":"ADQS","PARAMCD":"NPTOT9","PARAM":"NPI-X 9-Domain Total Score","PARAMN":1,"AVISIT":"Week 12","AVISITN":12,"ADT":"2014-06-05","ADY":86,"AVAL":0,"BASE":0,"CHG":0,"ABLFL":null,"TRT01A":"Placebo","TRT01AN":1,"SAFFL":"Y","ITTFL":"Y","EFFFL":"Y","COMPFL":"Y","SITEID":"701","AGE":52,"AGEGR1":"<65","SEX":"M","RACE":"WHITE","ARMCD":"Pbo","TRTSDT":"2014-03-12","TRTEDT":"2014-09-09"},{"STUDYID":"CDISCPILOT01","USUBJID":"01-701-1118","DOMAIN":"ADQS","PARAMCD":"NPTOT9","PARAM":"NPI-X 9-Domain Total Score","PARAMN":1,"AVISIT":"Week 14","AVISITN":14,"ADT":"2014-06-18","ADY":99,"AVAL":0,"BASE":0,"CHG":0,"ABLFL":null,"TRT01A":"Placebo","TRT01AN":1,"SAFFL":"Y","ITTFL":"Y","EFFFL":"Y","COMPFL":"Y","SITEID":"701","AGE":52,"AGEGR1":"<65","SEX":"M","RACE":"WHITE","ARMCD":"Pbo","TRTSDT":"2014-03-12","TRTEDT":"2014-09-09"},{"STUDYID":"CDISCPILOT01","USUBJID":"01-701-1118","DOMAIN":"ADQS","PARAMCD":"NPTOT9","PARAM":"NPI-X 9-Domain Total Score","PARAMN":1,"AVISIT":"Week 16","AVISITN":16,"ADT":"2014-07-02","ADY":113,"AVAL":0,"BASE":0,"CHG":0,"ABLFL":null,"TRT01A":"Placebo","TRT01AN":1,"SAFFL":"Y","ITTFL":"Y","EFFFL":"Y","COMPFL":"Y","SITEID":"701","AGE":52,"AGEGR1":"<65","SEX":"M","RACE":"WHITE","ARMCD":"Pbo","TRTSDT":"2014-03-12","TRTEDT":"2014-09-09"},{"STUDYID":"CDISCPILOT01","USUBJID":"01-701-1118","DOMAIN":"ADQS","PARAMCD":"NPTOT9","PARAM":"NPI-X 9-Domain Total Score","PARAMN":1,"AVISIT":"Week 18","AVISITN":18,"ADT":"2014-07-16","ADY":127,"AVAL":0,"BASE":0,"CHG":0,"ABLFL":null,"TRT01A":"Placebo","TRT01AN":1,"SAFFL":"Y","ITTFL":"Y","EFFFL":"Y","COMPFL":"Y","SITEID":"701","AGE":52,"AGEGR1":"<65","SEX":"M","RACE":"WHITE","ARMCD":"Pbo","TRTSDT":"2014-03-12","TRTEDT":"2014-09-09"},{"STUDYID":"CDISCPILOT01","USUBJID":"01-701-1118","DOMAIN":"ADQS","PARAMCD":"NPTOT9","PARAM":"NPI-X 9-Domain Total Score","PARAMN":1,"AVISIT":"Week 20","AVISITN":20,"ADT":"2014-07-30","ADY":141,"AVAL":0,"BASE":0,"CHG":0,"ABLFL":null,"TRT01A":"Placebo","TRT01AN":1,"SAFFL":"Y","ITTFL":"Y","EFFFL":"Y","COMPFL":"Y","SITEID":"701","AGE":52,"AGEGR1":"<65","SEX":"M","RACE":"WHITE","ARMCD":"Pbo","TRTSDT":"2014-03-12","TRTEDT":"2014-09-09"},{"STUDYID":"CDISCPILOT01","USUBJID":"01-701-1118","DOMAIN":"ADQS","PARAMCD":"NPTOT9","PARAM":"NPI-X 9-Domain Total Score","PARAMN":1,"AVISIT":"Week 22","AVISITN":22,"ADT":"2014-07-13","ADY":124,"AVAL":0,"BASE":0,"CHG":0,"ABLFL":null,"TRT01A":"Placebo","TRT01AN":1,"SAFFL":"Y","ITTFL":"Y","EFFFL":"Y","COMPFL":"Y","SITEID":"701","AGE":52,"AGEGR1":"<65","SEX":"M","RACE":"WHITE","ARMCD":"Pbo","TRTSDT":"2014-03-12","TRTEDT":"2014-09-09"},{"STUDYID":"CDISCPILOT01","USUBJID":"01-701-1118","DOMAIN":"ADQS","PARAMCD":"NPTOT9","PARAM":"NPI-X 9-Domain Total Score","PARAMN":1,"AVISIT":"Week 24","AVISITN":24,"ADT":"2014-08-27","ADY":169,"AVAL":0,"BASE":0,"CHG":0,"ABLFL":null,"TRT01A":"Placebo","TRT01AN":1,"SAFFL":"Y","ITTFL":"Y","EFFFL":"Y","COMPFL":"Y","SITEID":"701","AGE":52,"AGEGR1":"<65","SEX":"M","RACE":"WHITE","ARMCD":"Pbo","TRTSDT":"2014-03-12","TRTEDT":"2014-09-09"},{"STUDYID":"CDISCPILOT01","USUBJID":"01-701-1118","DOMAIN":"ADQS","PARAMCD":"NPTMN24","PARAM":"Mean NPI-X 9-Domain Total Score (Weeks 4-24)","PARAMN":2,"AVISIT":"Weeks 4-24 Mean","AVISITN":99,"ADT":null,"ADY":null,"AVAL":0,"BASE":0,"CHG":0,"ABLFL":null,"TRT01A":"Placebo","TRT01AN":1,"SAFFL":"Y","ITTFL":"Y","EFFFL":"Y","COMPFL":"Y","SITEID":"701","AGE":52,"AGEGR1":"<65","SEX":"M","RACE":"WHITE","ARMCD":"Pbo","TRTSDT":"2014-03-12","TRTEDT":"2014-09-09"},{"STUDYID":"CDISCPILOT01","USUBJID":"01-701-1130","DOMAIN":"ADQS","PARAMCD":"NPTOT9","PARAM":"NPI-X 9-Domain Total Score","PARAMN":1,"AVISIT":"Baseline","AVISITN":0,"ADT":"2014-02-15","ADY":1,"AVAL":0,"BASE":0,"CHG":null,"ABLFL":"Y","TRT01A":"Placebo","TRT01AN":1,"SAFFL":"Y","ITTFL":"Y","EFFFL":"Y","COMPFL":"Y","SITEID":"701","AGE":84,"AGEGR1":">80","SEX":"M","RACE":"WHITE","ARMCD":"Pbo","TRTSDT":"2014-02-15","TRTEDT":"2014-08-16"},{"STUDYID":"CDISCPILOT01","USUBJID":"01-701-1130","DOMAIN":"ADQS","PARAMCD":"NPTOT9","PARAM":"NPI-X 9-Domain Total Score","PARAMN":1,"AVISIT":"Week 2","AVISITN":2,"ADT":"2014-03-01","ADY":15,"AVAL":0,"BASE":0,"CHG":0,"ABLFL":null,"TRT01A":"Placebo","TRT01AN":1,"SAFFL":"Y","ITTFL":"Y","EFFFL":"Y","COMPFL":"Y","SITEID":"701","AGE":84,"AGEGR1":">80","SEX":"M","RACE":"WHITE","ARMCD":"Pbo","TRTSDT":"2014-02-15","TRTEDT":"2014-08-16"},{"STUDYID":"CDISCPILOT01","USUBJID":"01-701-1130","DOMAIN":"ADQS","PARAMCD":"NPTOT9","PARAM":"NPI-X 9-Domain Total Score","PARAMN":1,"AVISIT":"Week 4","AVISITN":4,"ADT":"2014-03-15","ADY":29,"AVAL":1,"BASE":0,"CHG":1,"ABLFL":null,"TRT01A":"Placebo","TRT01AN":1,"SAFFL":"Y","ITTFL":"Y","EFFFL":"Y","COMPFL":"Y","SITEID":"701","AGE":84,"AGEGR1":">80","SEX":"M","RACE":"WHITE","ARMCD":"Pbo","TRTSDT":"2014-02-15","TRTEDT":"2014-08-16"},{"STUDYID":"CDISCPILOT01","USUBJID":"01-701-1130","DOMAIN":"ADQS","PARAMCD":"NPTOT9","PARAM":"NPI-X 9-Domain Total Score","PARAMN":1,"AVISIT":"Week 6","AVISITN":6,"ADT":"2014-03-29","ADY":43,"AVAL":0,"BASE":0,"CHG":0,"ABLFL":null,"TRT01A":"Placebo","TRT01AN":1,"SAFFL":"Y","ITTFL":"Y","EFFFL":"Y","COMPFL":"Y","SITEID":"701","AGE":84,"AGEGR1":">80","SEX":"M","RACE":"WHITE","ARMCD":"Pbo","TRTSDT":"2014-02-15","TRTEDT":"2014-08-16"},{"STUDYID":"CDISCPILOT01","USUBJID":"01-701-1130","DOMAIN":"ADQS","PARAMCD":"NPTOT9","PARAM":"NPI-X 9-Domain Total Score","PARAMN":1,"AVISIT":"Week 8","AVISITN":8,"ADT":"2014-04-12","ADY":57,"AVAL":0,"BASE":0,"CHG":0,"ABLFL":null,"TRT01A":"Placebo","TRT01AN":1,"SAFFL":"Y","ITTFL":"Y","EFFFL":"Y","COMPFL":"Y","SITEID":"701","AGE":84,"AGEGR1":">80","SEX":"M","RACE":"WHITE","ARMCD":"Pbo","TRTSDT":"2014-02-15","TRTEDT":"2014-08-16"},{"STUDYID":"CDISCPILOT01","USUBJID":"01-701-1130","DOMAIN":"ADQS","PARAMCD":"NPTOT9","PARAM":"NPI-X 9-Domain Total Score","PARAMN":1,"AVISIT":"Week 10","AVISITN":10,"ADT":"2014-04-26","ADY":71,"AVAL":0,"BASE":0,"CHG":0,"ABLFL":null,"TRT01A":"Placebo","TRT01AN":1,"SAFFL":"Y","ITTFL":"Y","EFFFL":"Y","COMPFL":"Y","SITEID":"701","AGE":84,"AGEGR1":">80","SEX":"M","RACE":"WHITE","ARMCD":"Pbo","TRTSDT":"2014-02-15","TRTEDT":"2014-08-16"},{"STUDYID":"CDISCPILOT01","USUBJID":"01-701-1130","DOMAIN":"ADQS","PARAMCD":"NPTOT9","PARAM":"NPI-X 9-Domain Total Score","PARAMN":1,"AVISIT":"Week 12","AVISITN":12,"ADT":"2014-05-16","ADY":91,"AVAL":0,"BASE":0,"CHG":0,"ABLFL":null,"TRT01A":"Placebo","TRT01AN":1,"SAFFL":"Y","ITTFL":"Y","EFFFL":"Y","COMPFL":"Y","SITEID":"701","AGE":84,"AGEGR1":">80","SEX":"M","RACE":"WHITE","ARMCD":"Pbo","TRTSDT":"2014-02-15","TRTEDT":"2014-08-16"},{"STUDYID":"CDISCPILOT01","USUBJID":"01-701-1130","DOMAIN":"ADQS","PARAMCD":"NPTOT9","PARAM":"NPI-X 9-Domain Total Score","PARAMN":1,"AVISIT":"Week 14","AVISITN":14,"ADT":"2014-05-24","ADY":99,"AVAL":0,"BASE":0,"CHG":0,"ABLFL":null,"TRT01A":"Placebo","TRT01AN":1,"SAFFL":"Y","ITTFL":"Y","EFFFL":"Y","COMPFL":"Y","SITEID":"701","AGE":84,"AGEGR1":">80","SEX":"M","RACE":"WHITE","ARMCD":"Pbo","TRTSDT":"2014-02-15","TRTEDT":"2014-08-16"},{"STUDYID":"CDISCPILOT01","USUBJID":"01-701-1130","DOMAIN":"ADQS","PARAMCD":"NPTOT9","PARAM":"NPI-X 9-Domain Total Score","PARAMN":1,"AVISIT":"Week 16","AVISITN":16,"ADT":"2014-06-07","ADY":113,"AVAL":0,"BASE":0,"CHG":0,"ABLFL":null,"TRT01A":"Placebo","TRT01AN":1,"SAFFL":"Y","ITTFL":"Y","EFFFL":"Y","COMPFL":"Y","SITEID":"701","AGE":84,"AGEGR1":">80","SEX":"M","RACE":"WHITE","ARMCD":"Pbo","TRTSDT":"2014-02-15","TRTEDT":"2014-08-16"},{"STUDYID":"CDISCPILOT01","USUBJID":"01-701-1130","DOMAIN":"ADQS","PARAMCD":"NPTOT9","PARAM":"NPI-X 9-Domain Total Score","PARAMN":1,"AVISIT":"Week 18","AVISITN":18,"ADT":"2014-06-21","ADY":127,"AVAL":0,"BASE":0,"CHG":0,"ABLFL":null,"TRT01A":"Placebo","TRT01AN":1,"SAFFL":"Y","ITTFL":"Y","EFFFL":"Y","COMPFL":"Y","SITEID":"701","AGE":84,"AGEGR1":">80","SEX":"M","RACE":"WHITE","ARMCD":"Pbo","TRTSDT":"2014-02-15","TRTEDT":"2014-08-16"},{"STUDYID":"CDISCPILOT01","USUBJID":"01-701-1130","DOMAIN":"ADQS","PARAMCD":"NPTOT9","PARAM":"NPI-X 9-Domain Total Score","PARAMN":1,"AVISIT":"Week 20","AVISITN":20,"ADT":"2014-07-02","ADY":138,"AVAL":1,"BASE":0,"CHG":1,"ABLFL":null,"TRT01A":"Placebo","TRT01AN":1,"SAFFL":"Y","ITTFL":"Y","EFFFL":"Y","COMPFL":"Y","SITEID":"701","AGE":84,"AGEGR1":">80","SEX":"M","RACE":"WHITE","ARMCD":"Pbo","TRTSDT":"2014-02-15","TRTEDT":"2014-08-16"},{"STUDYID":"CDISCPILOT01","USUBJID":"01-701-1130","DOMAIN":"ADQS","PARAMCD":"NPTOT9","PARAM":"NPI-X 9-Domain Total Score","PARAMN":1,"AVISIT":"Week 22","AVISITN":22,"ADT":"2014-07-19","ADY":155,"AVAL":0,"BASE":0,"CHG":0,"ABLFL":null,"TRT01A":"Placebo","TRT01AN":1,"SAFFL":"Y","ITTFL":"Y","EFFFL":"Y","COMPFL":"Y","SITEID":"701","AGE":84,"AGEGR1":">80","SEX":"M","RACE":"WHITE","ARMCD":"Pbo","TRTSDT":"2014-02-15","TRTEDT":"2014-08-16"},{"STUDYID":"CDISCPILOT01","USUBJID":"01-701-1130","DOMAIN":"ADQS","PARAMCD":"NPTOT9","PARAM":"NPI-X 9-Domain Total Score","PARAMN":1,"AVISIT":"Week 24","AVISITN":24,"ADT":"2014-08-02","ADY":169,"AVAL":0,"BASE":0,"CHG":0,"ABLFL":null,"TRT01A":"Placebo","TRT01AN":1,"SAFFL":"Y","ITTFL":"Y","EFFFL":"Y","COMPFL":"Y","SITEID":"701","AGE":84,"AGEGR1":">80","SEX":"M","RACE":"WHITE","ARMCD":"Pbo","TRTSDT":"2014-02-15","TRTEDT":"2014-08-16"},{"STUDYID":"CDISCPILOT01","USUBJID":"01-701-1130","DOMAIN":"ADQS","PARAMCD":"NPTMN24","PARAM":"Mean NPI-X 9-Domain Total Score (Weeks 4-24)","PARAMN":2,"AVISIT":"Weeks 4-24 Mean","AVISITN":99,"ADT":null,"ADY":null,"AVAL":0.1818,"BASE":0,"CHG":0.1818,"ABLFL":null,"TRT01A":"Placebo","TRT01AN":1,"SAFFL":"Y","ITTFL":"Y","EFFFL":"Y","COMPFL":"Y","SITEID":"701","AGE":84,"AGEGR1":">80","SEX":"M","RACE":"WHITE","ARMCD":"Pbo","TRTSDT":"2014-02-15","TRTEDT":"2014-08-16"},{"STUDYID":"CDISCPILOT01","USUBJID":"01-701-1133","DOMAIN":"ADQS","PARAMCD":"NPTOT9","PARAM":"NPI-X 9-Domain Total Score","PARAMN":1,"AVISIT":"Baseline","AVISITN":0,"ADT":"2012-10-28","ADY":1,"AVAL":3,"BASE":3,"CHG":null,"ABLFL":"Y","TRT01A":"Xanomeline High Dose","TRT01AN":3,"SAFFL":"Y","ITTFL":"Y","EFFFL":"Y","COMPFL":"Y","SITEID":"701","AGE":81,"AGEGR1":">80","SEX":"F","RACE":"WHITE","ARMCD":"Xan_Hi","TRTSDT":"2012-10-28","TRTEDT":"2013-04-28"},{"STUDYID":"CDISCPILOT01","USUBJID":"01-701-1133","DOMAIN":"ADQS","PARAMCD":"NPTOT9","PARAM":"NPI-X 9-Domain Total Score","PARAMN":1,"AVISIT":"Week 2","AVISITN":2,"ADT":"2012-11-12","ADY":16,"AVAL":2,"BASE":3,"CHG":-1,"ABLFL":null,"TRT01A":"Xanomeline High Dose","TRT01AN":3,"SAFFL":"Y","ITTFL":"Y","EFFFL":"Y","COMPFL":"Y","SITEID":"701","AGE":81,"AGEGR1":">80","SEX":"F","RACE":"WHITE","ARMCD":"Xan_Hi","TRTSDT":"2012-10-28","TRTEDT":"2013-04-28"},{"STUDYID":"CDISCPILOT01","USUBJID":"01-701-1133","DOMAIN":"ADQS","PARAMCD":"NPTOT9","PARAM":"NPI-X 9-Domain Total Score","PARAMN":1,"AVISIT":"Week 4","AVISITN":4,"ADT":"2012-11-26","ADY":30,"AVAL":5,"BASE":3,"CHG":2,"ABLFL":null,"TRT01A":"Xanomeline High Dose","TRT01AN":3,"SAFFL":"Y","ITTFL":"Y","EFFFL":"Y","COMPFL":"Y","SITEID":"701","AGE":81,"AGEGR1":">80","SEX":"F","RACE":"WHITE","ARMCD":"Xan_Hi","TRTSDT":"2012-10-28","TRTEDT":"2013-04-28"},{"STUDYID":"CDISCPILOT01","USUBJID":"01-701-1133","DOMAIN":"ADQS","PARAMCD":"NPTOT9","PARAM":"NPI-X 9-Domain Total Score","PARAMN":1,"AVISIT":"Week 6","AVISITN":6,"ADT":"2012-12-11","ADY":45,"AVAL":8,"BASE":3,"CHG":5,"ABLFL":null,"TRT01A":"Xanomeline High Dose","TRT01AN":3,"SAFFL":"Y","ITTFL":"Y","EFFFL":"Y","COMPFL":"Y","SITEID":"701","AGE":81,"AGEGR1":">80","SEX":"F","RACE":"WHITE","ARMCD":"Xan_Hi","TRTSDT":"2012-10-28","TRTEDT":"2013-04-28"},{"STUDYID":"CDISCPILOT01","USUBJID":"01-701-1133","DOMAIN":"ADQS","PARAMCD":"NPTOT9","PARAM":"NPI-X 9-Domain Total Score","PARAMN":1,"AVISIT":"Week 8","AVISITN":8,"ADT":"2012-12-24","ADY":58,"AVAL":2,"BASE":3,"CHG":-1,"ABLFL":null,"TRT01A":"Xanomeline High Dose","TRT01AN":3,"SAFFL":"Y","ITTFL":"Y","EFFFL":"Y","COMPFL":"Y","SITEID":"701","AGE":81,"AGEGR1":">80","SEX":"F","RACE":"WHITE","ARMCD":"Xan_Hi","TRTSDT":"2012-10-28","TRTEDT":"2013-04-28"},{"STUDYID":"CDISCPILOT01","USUBJID":"01-701-1133","DOMAIN":"ADQS","PARAMCD":"NPTOT9","PARAM":"NPI-X 9-Domain Total Score","PARAMN":1,"AVISIT":"Week 10","AVISITN":10,"ADT":"2013-01-07","ADY":72,"AVAL":3,"BASE":3,"CHG":0,"ABLFL":null,"TRT01A":"Xanomeline High Dose","TRT01AN":3,"SAFFL":"Y","ITTFL":"Y","EFFFL":"Y","COMPFL":"Y","SITEID":"701","AGE":81,"AGEGR1":">80","SEX":"F","RACE":"WHITE","ARMCD":"Xan_Hi","TRTSDT":"2012-10-28","TRTEDT":"2013-04-28"},{"STUDYID":"CDISCPILOT01","USUBJID":"01-701-1133","DOMAIN":"ADQS","PARAMCD":"NPTOT9","PARAM":"NPI-X 9-Domain Total Score","PARAMN":1,"AVISIT":"Week 12","AVISITN":12,"ADT":"2013-01-22","ADY":87,"AVAL":2,"BASE":3,"CHG":-1,"ABLFL":null,"TRT01A":"Xanomeline High Dose","TRT01AN":3,"SAFFL":"Y","ITTFL":"Y","EFFFL":"Y","COMPFL":"Y","SITEID":"701","AGE":81,"AGEGR1":">80","SEX":"F","RACE":"WHITE","ARMCD":"Xan_Hi","TRTSDT":"2012-10-28","TRTEDT":"2013-04-28"},{"STUDYID":"CDISCPILOT01","USUBJID":"01-701-1133","DOMAIN":"ADQS","PARAMCD":"NPTOT9","PARAM":"NPI-X 9-Domain Total Score","PARAMN":1,"AVISIT":"Week 14","AVISITN":14,"ADT":"2013-02-04","ADY":100,"AVAL":3,"BASE":3,"CHG":0,"ABLFL":null,"TRT01A":"Xanomeline High Dose","TRT01AN":3,"SAFFL":"Y","ITTFL":"Y","EFFFL":"Y","COMPFL":"Y","SITEID":"701","AGE":81,"AGEGR1":">80","SEX":"F","RACE":"WHITE","ARMCD":"Xan_Hi","TRTSDT":"2012-10-28","TRTEDT":"2013-04-28"},{"STUDYID":"CDISCPILOT01","USUBJID":"01-701-1133","DOMAIN":"ADQS","PARAMCD":"NPTOT9","PARAM":"NPI-X 9-Domain Total Score","PARAMN":1,"AVISIT":"Week 16","AVISITN":16,"ADT":"2013-02-18","ADY":114,"AVAL":6,"BASE":3,"CHG":3,"ABLFL":null,"TRT01A":"Xanomeline High Dose","TRT01AN":3,"SAFFL":"Y","ITTFL":"Y","EFFFL":"Y","COMPFL":"Y","SITEID":"701","AGE":81,"AGEGR1":">80","SEX":"F","RACE":"WHITE","ARMCD":"Xan_Hi","TRTSDT":"2012-10-28","TRTEDT":"2013-04-28"},{"STUDYID":"CDISCPILOT01","USUBJID":"01-701-1133","DOMAIN":"ADQS","PARAMCD":"NPTOT9","PARAM":"NPI-X 9-Domain Total Score","PARAMN":1,"AVISIT":"Week 18","AVISITN":18,"ADT":"2013-03-04","ADY":128,"AVAL":4,"BASE":3,"CHG":1,"ABLFL":null,"TRT01A":"Xanomeline High Dose","TRT01AN":3,"SAFFL":"Y","ITTFL":"Y","EFFFL":"Y","COMPFL":"Y","SITEID":"701","AGE":81,"AGEGR1":">80","SEX":"F","RACE":"WHITE","ARMCD":"Xan_Hi","TRTSDT":"2012-10-28","TRTEDT":"2013-04-28"},{"STUDYID":"CDISCPILOT01","USUBJID":"01-701-1133","DOMAIN":"ADQS","PARAMCD":"NPTOT9","PARAM":"NPI-X 9-Domain Total Score","PARAMN":1,"AVISIT":"Week 20","AVISITN":20,"ADT":"2013-03-18","ADY":142,"AVAL":3,"BASE":3,"CHG":0,"ABLFL":null,"TRT01A":"Xanomeline High Dose","TRT01AN":3,"SAFFL":"Y","ITTFL":"Y","EFFFL":"Y","COMPFL":"Y","SITEID":"701","AGE":81,"AGEGR1":">80","SEX":"F","RACE":"WHITE","ARMCD":"Xan_Hi","TRTSDT":"2012-10-28","TRTEDT":"2013-04-28"},{"STUDYID":"CDISCPILOT01","USUBJID":"01-701-1133","DOMAIN":"ADQS","PARAMCD":"NPTOT9","PARAM":"NPI-X 9-Domain Total Score","PARAMN":1,"AVISIT":"Week 22","AVISITN":22,"ADT":"2013-04-01","ADY":156,"AVAL":6,"BASE":3,"CHG":3,"ABLFL":null,"TRT01A":"Xanomeline High Dose","TRT01AN":3,"SAFFL":"Y","ITTFL":"Y","EFFFL":"Y","COMPFL":"Y","SITEID":"701","AGE":81,"AGEGR1":">80","SEX":"F","RACE":"WHITE","ARMCD":"Xan_Hi","TRTSDT":"2012-10-28","TRTEDT":"2013-04-28"},{"STUDYID":"CDISCPILOT01","USUBJID":"01-701-1133","DOMAIN":"ADQS","PARAMCD":"NPTOT9","PARAM":"NPI-X 9-Domain Total Score","PARAMN":1,"AVISIT":"Week 24","AVISITN":24,"ADT":"2013-04-18","ADY":173,"AVAL":4,"BASE":3,"CHG":1,"ABLFL":null,"TRT01A":"Xanomeline High Dose","TRT01AN":3,"SAFFL":"Y","ITTFL":"Y","EFFFL":"Y","COMPFL":"Y","SITEID":"701","AGE":81,"AGEGR1":">80","SEX":"F","RACE":"WHITE","ARMCD":"Xan_Hi","TRTSDT":"2012-10-28","TRTEDT":"2013-04-28"},{"STUDYID":"CDISCPILOT01","USUBJID":"01-701-1133","DOMAIN":"ADQS","PARAMCD":"NPTMN24","PARAM":"Mean NPI-X 9-Domain Total Score (Weeks 4-24)","PARAMN":2,"AVISIT":"Weeks 4-24 Mean","AVISITN":99,"ADT":null,"ADY":null,"AVAL":4.1818,"BASE":3,"CHG":1.1818,"ABLFL":null,"TRT01A":"Xanomeline High Dose","TRT01AN":3,"SAFFL":"Y","ITTFL":"Y","EFFFL":"Y","COMPFL":"Y","SITEID":"701","AGE":81,"AGEGR1":">80","SEX":"F","RACE":"WHITE","ARMCD":"Xan_Hi","TRTSDT":"2012-10-28","TRTEDT":"2013-04-28"},{"STUDYID":"CDISCPILOT01","USUBJID":"01-701-1146","DOMAIN":"ADQS","PARAMCD":"NPTOT9","PARAM":"NPI-X 9-Domain Total Score","PARAMN":1,"AVISIT":"Baseline","AVISITN":0,"ADT":"2013-05-20","ADY":1,"AVAL":4,"BASE":4,"CHG":null,"ABLFL":"Y","TRT01A":"Xanomeline High Dose","TRT01AN":3,"SAFFL":"Y","ITTFL":"Y","EFFFL":"Y","COMPFL":"N","SITEID":"701","AGE":75,"AGEGR1":"65-80","SEX":"F","RACE":"WHITE","ARMCD":"Xan_Hi","TRTSDT":"2013-05-20","TRTEDT":"2013-06-26"},{"STUDYID":"CDISCPILOT01","USUBJID":"01-701-1146","DOMAIN":"ADQS","PARAMCD":"NPTOT9","PARAM":"NPI-X 9-Domain Total Score","PARAMN":1,"AVISIT":"Week 2","AVISITN":2,"ADT":"2013-06-03","ADY":15,"AVAL":4,"BASE":4,"CHG":0,"ABLFL":null,"TRT01A":"Xanomeline High Dose","TRT01AN":3,"SAFFL":"Y","ITTFL":"Y","EFFFL":"Y","COMPFL":"N","SITEID":"701","AGE":75,"AGEGR1":"65-80","SEX":"F","RACE":"WHITE","ARMCD":"Xan_Hi","TRTSDT":"2013-05-20","TRTEDT":"2013-06-26"},{"STUDYID":"CDISCPILOT01","USUBJID":"01-701-1146","DOMAIN":"ADQS","PARAMCD":"NPTOT9","PARAM":"NPI-X 9-Domain Total Score","PARAMN":1,"AVISIT":"Week 4","AVISITN":4,"ADT":"2013-06-16","ADY":28,"AVAL":1,"BASE":4,"CHG":-3,"ABLFL":null,"TRT01A":"Xanomeline High Dose","TRT01AN":3,"SAFFL":"Y","ITTFL":"Y","EFFFL":"Y","COMPFL":"N","SITEID":"701","AGE":75,"AGEGR1":"65-80","SEX":"F","RACE":"WHITE","ARMCD":"Xan_Hi","TRTSDT":"2013-05-20","TRTEDT":"2013-06-26"},{"STUDYID":"CDISCPILOT01","USUBJID":"01-701-1146","DOMAIN":"ADQS","PARAMCD":"NPTOT9","PARAM":"NPI-X 9-Domain Total Score","PARAMN":1,"AVISIT":"Week 6","AVISITN":6,"ADT":"2013-06-30","ADY":42,"AVAL":1,"BASE":4,"CHG":-3,"ABLFL":null,"TRT01A":"Xanomeline High Dose","TRT01AN":3,"SAFFL":"Y","ITTFL":"Y","EFFFL":"Y","COMPFL":"N","SITEID":"701","AGE":75,"AGEGR1":"65-80","SEX":"F","RACE":"WHITE","ARMCD":"Xan_Hi","TRTSDT":"2013-05-20","TRTEDT":"2013-06-26"},{"STUDYID":"CDISCPILOT01","USUBJID":"01-701-1146","DOMAIN":"ADQS","PARAMCD":"NPTMN24","PARAM":"Mean NPI-X 9-Domain Total Score (Weeks 4-24)","PARAMN":2,"AVISIT":"Weeks 4-24 Mean","AVISITN":99,"ADT":null,"ADY":null,"AVAL":1,"BASE":4,"CHG":-3,"ABLFL":null,"TRT01A":"Xanomeline High Dose","TRT01AN":3,"SAFFL":"Y","ITTFL":"Y","EFFFL":"Y","COMPFL":"N","SITEID":"701","AGE":75,"AGEGR1":"65-80","SEX":"F","RACE":"WHITE","ARMCD":"Xan_Hi","TRTSDT":"2013-05-20","TRTEDT":"2013-06-26"},{"STUDYID":"CDISCPILOT01","USUBJID":"01-701-1148","DOMAIN":"ADQS","PARAMCD":"NPTOT9","PARAM":"NPI-X 9-Domain Total Score","PARAMN":1,"AVISIT":"Baseline","AVISITN":0,"ADT":"2013-08-23","ADY":1,"AVAL":6,"BASE":6,"CHG":null,"ABLFL":"Y","TRT01A":"Xanomeline High Dose","TRT01AN":3,"SAFFL":"Y","ITTFL":"Y","EFFFL":"Y","COMPFL":"Y","SITEID":"701","AGE":57,"AGEGR1":"<65","SEX":"M","RACE":"WHITE","ARMCD":"Xan_Hi","TRTSDT":"2013-08-23","TRTEDT":"2014-02-20"},{"STUDYID":"CDISCPILOT01","USUBJID":"01-701-1148","DOMAIN":"ADQS","PARAMCD":"NPTOT9","PARAM":"NPI-X 9-Domain Total Score","PARAMN":1,"AVISIT":"Week 2","AVISITN":2,"ADT":"2013-09-05","ADY":14,"AVAL":0,"BASE":6,"CHG":-6,"ABLFL":null,"TRT01A":"Xanomeline High Dose","TRT01AN":3,"SAFFL":"Y","ITTFL":"Y","EFFFL":"Y","COMPFL":"Y","SITEID":"701","AGE":57,"AGEGR1":"<65","SEX":"M","RACE":"WHITE","ARMCD":"Xan_Hi","TRTSDT":"2013-08-23","TRTEDT":"2014-02-20"},{"STUDYID":"CDISCPILOT01","USUBJID":"01-701-1148","DOMAIN":"ADQS","PARAMCD":"NPTOT9","PARAM":"NPI-X 9-Domain Total Score","PARAMN":1,"AVISIT":"Week 4","AVISITN":4,"ADT":"2013-09-19","ADY":28,"AVAL":6,"BASE":6,"CHG":0,"ABLFL":null,"TRT01A":"Xanomeline High Dose","TRT01AN":3,"SAFFL":"Y","ITTFL":"Y","EFFFL":"Y","COMPFL":"Y","SITEID":"701","AGE":57,"AGEGR1":"<65","SEX":"M","RACE":"WHITE","ARMCD":"Xan_Hi","TRTSDT":"2013-08-23","TRTEDT":"2014-02-20"},{"STUDYID":"CDISCPILOT01","USUBJID":"01-701-1148","DOMAIN":"ADQS","PARAMCD":"NPTOT9","PARAM":"NPI-X 9-Domain Total Score","PARAMN":1,"AVISIT":"Week 6","AVISITN":6,"ADT":"2013-10-03","ADY":42,"AVAL":0,"BASE":6,"CHG":-6,"ABLFL":null,"TRT01A":"Xanomeline High Dose","TRT01AN":3,"SAFFL":"Y","ITTFL":"Y","EFFFL":"Y","COMPFL":"Y","SITEID":"701","AGE":57,"AGEGR1":"<65","SEX":"M","RACE":"WHITE","ARMCD":"Xan_Hi","TRTSDT":"2013-08-23","TRTEDT":"2014-02-20"},{"STUDYID":"CDISCPILOT01","USUBJID":"01-701-1148","DOMAIN":"ADQS","PARAMCD":"NPTOT9","PARAM":"NPI-X 9-Domain Total Score","PARAMN":1,"AVISIT":"Week 8","AVISITN":8,"ADT":"2013-10-18","ADY":57,"AVAL":3,"BASE":6,"CHG":-3,"ABLFL":null,"TRT01A":"Xanomeline High Dose","TRT01AN":3,"SAFFL":"Y","ITTFL":"Y","EFFFL":"Y","COMPFL":"Y","SITEID":"701","AGE":57,"AGEGR1":"<65","SEX":"M","RACE":"WHITE","ARMCD":"Xan_Hi","TRTSDT":"2013-08-23","TRTEDT":"2014-02-20"},{"STUDYID":"CDISCPILOT01","USUBJID":"01-701-1148","DOMAIN":"ADQS","PARAMCD":"NPTOT9","PARAM":"NPI-X 9-Domain Total Score","PARAMN":1,"AVISIT":"Week 10","AVISITN":10,"ADT":"2013-11-01","ADY":71,"AVAL":4,"BASE":6,"CHG":-2,"ABLFL":null,"TRT01A":"Xanomeline High Dose","TRT01AN":3,"SAFFL":"Y","ITTFL":"Y","EFFFL":"Y","COMPFL":"Y","SITEID":"701","AGE":57,"AGEGR1":"<65","SEX":"M","RACE":"WHITE","ARMCD":"Xan_Hi","TRTSDT":"2013-08-23","TRTEDT":"2014-02-20"},{"STUDYID":"CDISCPILOT01","USUBJID":"01-701-1148","DOMAIN":"ADQS","PARAMCD":"NPTOT9","PARAM":"NPI-X 9-Domain Total Score","PARAMN":1,"AVISIT":"Week 12","AVISITN":12,"ADT":"2013-11-17","ADY":87,"AVAL":0,"BASE":6,"CHG":-6,"ABLFL":null,"TRT01A":"Xanomeline High Dose","TRT01AN":3,"SAFFL":"Y","ITTFL":"Y","EFFFL":"Y","COMPFL":"Y","SITEID":"701","AGE":57,"AGEGR1":"<65","SEX":"M","RACE":"WHITE","ARMCD":"Xan_Hi","TRTSDT":"2013-08-23","TRTEDT":"2014-02-20"},{"STUDYID":"CDISCPILOT01","USUBJID":"01-701-1148","DOMAIN":"ADQS","PARAMCD":"NPTOT9","PARAM":"NPI-X 9-Domain Total Score","PARAMN":1,"AVISIT":"Week 14","AVISITN":14,"ADT":"2013-11-30","ADY":100,"AVAL":0,"BASE":6,"CHG":-6,"ABLFL":null,"TRT01A":"Xanomeline High Dose","TRT01AN":3,"SAFFL":"Y","ITTFL":"Y","EFFFL":"Y","COMPFL":"Y","SITEID":"701","AGE":57,"AGEGR1":"<65","SEX":"M","RACE":"WHITE","ARMCD":"Xan_Hi","TRTSDT":"2013-08-23","TRTEDT":"2014-02-20"},{"STUDYID":"CDISCPILOT01","USUBJID":"01-701-1148","DOMAIN":"ADQS","PARAMCD":"NPTOT9","PARAM":"NPI-X 9-Domain Total Score","PARAMN":1,"AVISIT":"Week 16","AVISITN":16,"ADT":"2013-12-13","ADY":113,"AVAL":1,"BASE":6,"CHG":-5,"ABLFL":null,"TRT01A":"Xanomeline High Dose","TRT01AN":3,"SAFFL":"Y","ITTFL":"Y","EFFFL":"Y","COMPFL":"Y","SITEID":"701","AGE":57,"AGEGR1":"<65","SEX":"M","RACE":"WHITE","ARMCD":"Xan_Hi","TRTSDT":"2013-08-23","TRTEDT":"2014-02-20"},{"STUDYID":"CDISCPILOT01","USUBJID":"01-701-1148","DOMAIN":"ADQS","PARAMCD":"NPTOT9","PARAM":"NPI-X 9-Domain Total Score","PARAMN":1,"AVISIT":"Week 18","AVISITN":18,"ADT":"2013-12-27","ADY":127,"AVAL":5,"BASE":6,"CHG":-1,"ABLFL":null,"TRT01A":"Xanomeline High Dose","TRT01AN":3,"SAFFL":"Y","ITTFL":"Y","EFFFL":"Y","COMPFL":"Y","SITEID":"701","AGE":57,"AGEGR1":"<65","SEX":"M","RACE":"WHITE","ARMCD":"Xan_Hi","TRTSDT":"2013-08-23","TRTEDT":"2014-02-20"},{"STUDYID":"CDISCPILOT01","USUBJID":"01-701-1148","DOMAIN":"ADQS","PARAMCD":"NPTOT9","PARAM":"NPI-X 9-Domain Total Score","PARAMN":1,"AVISIT":"Week 20","AVISITN":20,"ADT":"2014-01-10","ADY":141,"AVAL":4,"BASE":6,"CHG":-2,"ABLFL":null,"TRT01A":"Xanomeline High Dose","TRT01AN":3,"SAFFL":"Y","ITTFL":"Y","EFFFL":"Y","COMPFL":"Y","SITEID":"701","AGE":57,"AGEGR1":"<65","SEX":"M","RACE":"WHITE","ARMCD":"Xan_Hi","TRTSDT":"2013-08-23","TRTEDT":"2014-02-20"},{"STUDYID":"CDISCPILOT01","USUBJID":"01-701-1148","DOMAIN":"ADQS","PARAMCD":"NPTOT9","PARAM":"NPI-X 9-Domain Total Score","PARAMN":1,"AVISIT":"Week 22","AVISITN":22,"ADT":"2014-01-24","ADY":155,"AVAL":6,"BASE":6,"CHG":0,"ABLFL":null,"TRT01A":"Xanomeline High Dose","TRT01AN":3,"SAFFL":"Y","ITTFL":"Y","EFFFL":"Y","COMPFL":"Y","SITEID":"701","AGE":57,"AGEGR1":"<65","SEX":"M","RACE":"WHITE","ARMCD":"Xan_Hi","TRTSDT":"2013-08-23","TRTEDT":"2014-02-20"},{"STUDYID":"CDISCPILOT01","USUBJID":"01-701-1148","DOMAIN":"ADQS","PARAMCD":"NPTOT9","PARAM":"NPI-X 9-Domain Total Score","PARAMN":1,"AVISIT":"Week 24","AVISITN":24,"ADT":"2014-02-08","ADY":170,"AVAL":4,"BASE":6,"CHG":-2,"ABLFL":null,"TRT01A":"Xanomeline High Dose","TRT01AN":3,"SAFFL":"Y","ITTFL":"Y","EFFFL":"Y","COMPFL":"Y","SITEID":"701","AGE":57,"AGEGR1":"<65","SEX":"M","RACE":"WHITE","ARMCD":"Xan_Hi","TRTSDT":"2013-08-23","TRTEDT":"2014-02-20"},{"STUDYID":"CDISCPILOT01","USUBJID":"01-701-1148","DOMAIN":"ADQS","PARAMCD":"NPTMN24","PARAM":"Mean NPI-X 9-Domain Total Score (Weeks 4-24)","PARAMN":2,"AVISIT":"Weeks 4-24 Mean","AVISITN":99,"ADT":null,"ADY":null,"AVAL":3,"BASE":6,"CHG":-3,"ABLFL":null,"TRT01A":"Xanomeline High Dose","TRT01AN":3,"SAFFL":"Y","ITTFL":"Y","EFFFL":"Y","COMPFL":"Y","SITEID":"701","AGE":57,"AGEGR1":"<65","SEX":"M","RACE":"WHITE","ARMCD":"Xan_Hi","TRTSDT":"2013-08-23","TRTEDT":"2014-02-20"},{"STUDYID":"CDISCPILOT01","USUBJID":"01-701-1153","DOMAIN":"ADQS","PARAMCD":"NPTOT9","PARAM":"NPI-X 9-Domain Total Score","PARAMN":1,"AVISIT":"Baseline","AVISITN":0,"ADT":"2013-09-23","ADY":1,"AVAL":6,"BASE":6,"CHG":null,"ABLFL":"Y","TRT01A":"Placebo","TRT01AN":1,"SAFFL":"Y","ITTFL":"Y","EFFFL":"Y","COMPFL":"Y","SITEID":"701","AGE":79,"AGEGR1":"65-80","SEX":"F","RACE":"WHITE","ARMCD":"Pbo","TRTSDT":"2013-09-23","TRTEDT":"2014-03-16"},{"STUDYID":"CDISCPILOT01","USUBJID":"01-701-1153","DOMAIN":"ADQS","PARAMCD":"NPTOT9","PARAM":"NPI-X 9-Domain Total Score","PARAMN":1,"AVISIT":"Week 2","AVISITN":2,"ADT":"2013-10-08","ADY":16,"AVAL":6,"BASE":6,"CHG":0,"ABLFL":null,"TRT01A":"Placebo","TRT01AN":1,"SAFFL":"Y","ITTFL":"Y","EFFFL":"Y","COMPFL":"Y","SITEID":"701","AGE":79,"AGEGR1":"65-80","SEX":"F","RACE":"WHITE","ARMCD":"Pbo","TRTSDT":"2013-09-23","TRTEDT":"2014-03-16"},{"STUDYID":"CDISCPILOT01","USUBJID":"01-701-1153","DOMAIN":"ADQS","PARAMCD":"NPTOT9","PARAM":"NPI-X 9-Domain Total Score","PARAMN":1,"AVISIT":"Week 4","AVISITN":4,"ADT":"2013-10-19","ADY":27,"AVAL":4,"BASE":6,"CHG":-2,"ABLFL":null,"TRT01A":"Placebo","TRT01AN":1,"SAFFL":"Y","ITTFL":"Y","EFFFL":"Y","COMPFL":"Y","SITEID":"701","AGE":79,"AGEGR1":"65-80","SEX":"F","RACE":"WHITE","ARMCD":"Pbo","TRTSDT":"2013-09-23","TRTEDT":"2014-03-16"},{"STUDYID":"CDISCPILOT01","USUBJID":"01-701-1153","DOMAIN":"ADQS","PARAMCD":"NPTOT9","PARAM":"NPI-X 9-Domain Total Score","PARAMN":1,"AVISIT":"Week 6","AVISITN":6,"ADT":"2013-11-04","ADY":43,"AVAL":5,"BASE":6,"CHG":-1,"ABLFL":null,"TRT01A":"Placebo","TRT01AN":1,"SAFFL":"Y","ITTFL":"Y","EFFFL":"Y","COMPFL":"Y","SITEID":"701","AGE":79,"AGEGR1":"65-80","SEX":"F","RACE":"WHITE","ARMCD":"Pbo","TRTSDT":"2013-09-23","TRTEDT":"2014-03-16"},{"STUDYID":"CDISCPILOT01","USUBJID":"01-701-1153","DOMAIN":"ADQS","PARAMCD":"NPTOT9","PARAM":"NPI-X 9-Domain Total Score","PARAMN":1,"AVISIT":"Week 8","AVISITN":8,"ADT":"2013-11-18","ADY":57,"AVAL":5,"BASE":6,"CHG":-1,"ABLFL":null,"TRT01A":"Placebo","TRT01AN":1,"SAFFL":"Y","ITTFL":"Y","EFFFL":"Y","COMPFL":"Y","SITEID":"701","AGE":79,"AGEGR1":"65-80","SEX":"F","RACE":"WHITE","ARMCD":"Pbo","TRTSDT":"2013-09-23","TRTEDT":"2014-03-16"},{"STUDYID":"CDISCPILOT01","USUBJID":"01-701-1153","DOMAIN":"ADQS","PARAMCD":"NPTOT9","PARAM":"NPI-X 9-Domain Total Score","PARAMN":1,"AVISIT":"Week 10","AVISITN":10,"ADT":"2013-12-02","ADY":71,"AVAL":5,"BASE":6,"CHG":-1,"ABLFL":null,"TRT01A":"Placebo","TRT01AN":1,"SAFFL":"Y","ITTFL":"Y","EFFFL":"Y","COMPFL":"Y","SITEID":"701","AGE":79,"AGEGR1":"65-80","SEX":"F","RACE":"WHITE","ARMCD":"Pbo","TRTSDT":"2013-09-23","TRTEDT":"2014-03-16"},{"STUDYID":"CDISCPILOT01","USUBJID":"01-701-1153","DOMAIN":"ADQS","PARAMCD":"NPTOT9","PARAM":"NPI-X 9-Domain Total Score","PARAMN":1,"AVISIT":"Week 12","AVISITN":12,"ADT":"2013-12-16","ADY":85,"AVAL":6,"BASE":6,"CHG":0,"ABLFL":null,"TRT01A":"Placebo","TRT01AN":1,"SAFFL":"Y","ITTFL":"Y","EFFFL":"Y","COMPFL":"Y","SITEID":"701","AGE":79,"AGEGR1":"65-80","SEX":"F","RACE":"WHITE","ARMCD":"Pbo","TRTSDT":"2013-09-23","TRTEDT":"2014-03-16"},{"STUDYID":"CDISCPILOT01","USUBJID":"01-701-1153","DOMAIN":"ADQS","PARAMCD":"NPTOT9","PARAM":"NPI-X 9-Domain Total Score","PARAMN":1,"AVISIT":"Week 14","AVISITN":14,"ADT":"2013-12-30","ADY":99,"AVAL":5,"BASE":6,"CHG":-1,"ABLFL":null,"TRT01A":"Placebo","TRT01AN":1,"SAFFL":"Y","ITTFL":"Y","EFFFL":"Y","COMPFL":"Y","SITEID":"701","AGE":79,"AGEGR1":"65-80","SEX":"F","RACE":"WHITE","ARMCD":"Pbo","TRTSDT":"2013-09-23","TRTEDT":"2014-03-16"},{"STUDYID":"CDISCPILOT01","USUBJID":"01-701-1153","DOMAIN":"ADQS","PARAMCD":"NPTOT9","PARAM":"NPI-X 9-Domain Total Score","PARAMN":1,"AVISIT":"Week 16","AVISITN":16,"ADT":"2014-01-08","ADY":108,"AVAL":3,"BASE":6,"CHG":-3,"ABLFL":null,"TRT01A":"Placebo","TRT01AN":1,"SAFFL":"Y","ITTFL":"Y","EFFFL":"Y","COMPFL":"Y","SITEID":"701","AGE":79,"AGEGR1":"65-80","SEX":"F","RACE":"WHITE","ARMCD":"Pbo","TRTSDT":"2013-09-23","TRTEDT":"2014-03-16"},{"STUDYID":"CDISCPILOT01","USUBJID":"01-701-1153","DOMAIN":"ADQS","PARAMCD":"NPTOT9","PARAM":"NPI-X 9-Domain Total Score","PARAMN":1,"AVISIT":"Week 20","AVISITN":20,"ADT":"2014-02-11","ADY":142,"AVAL":6,"BASE":6,"CHG":0,"ABLFL":null,"TRT01A":"Placebo","TRT01AN":1,"SAFFL":"Y","ITTFL":"Y","EFFFL":"Y","COMPFL":"Y","SITEID":"701","AGE":79,"AGEGR1":"65-80","SEX":"F","RACE":"WHITE","ARMCD":"Pbo","TRTSDT":"2013-09-23","TRTEDT":"2014-03-16"},{"STUDYID":"CDISCPILOT01","USUBJID":"01-701-1153","DOMAIN":"ADQS","PARAMCD":"NPTOT9","PARAM":"NPI-X 9-Domain Total Score","PARAMN":1,"AVISIT":"Week 22","AVISITN":22,"ADT":"2014-02-25","ADY":156,"AVAL":3,"BASE":6,"CHG":-3,"ABLFL":null,"TRT01A":"Placebo","TRT01AN":1,"SAFFL":"Y","ITTFL":"Y","EFFFL":"Y","COMPFL":"Y","SITEID":"701","AGE":79,"AGEGR1":"65-80","SEX":"F","RACE":"WHITE","ARMCD":"Pbo","TRTSDT":"2013-09-23","TRTEDT":"2014-03-16"},{"STUDYID":"CDISCPILOT01","USUBJID":"01-701-1153","DOMAIN":"ADQS","PARAMCD":"NPTOT9","PARAM":"NPI-X 9-Domain Total Score","PARAMN":1,"AVISIT":"Week 24","AVISITN":24,"ADT":"2014-03-11","ADY":170,"AVAL":3,"BASE":6,"CHG":-3,"ABLFL":null,"TRT01A":"Placebo","TRT01AN":1,"SAFFL":"Y","ITTFL":"Y","EFFFL":"Y","COMPFL":"Y","SITEID":"701","AGE":79,"AGEGR1":"65-80","SEX":"F","RACE":"WHITE","ARMCD":"Pbo","TRTSDT":"2013-09-23","TRTEDT":"2014-03-16"},{"STUDYID":"CDISCPILOT01","USUBJID":"01-701-1153","DOMAIN":"ADQS","PARAMCD":"NPTMN24","PARAM":"Mean NPI-X 9-Domain Total Score (Weeks 4-24)","PARAMN":2,"AVISIT":"Weeks 4-24 Mean","AVISITN":99,"ADT":null,"ADY":null,"AVAL":4.5,"BASE":6,"CHG":-1.5,"ABLFL":null,"TRT01A":"Placebo","TRT01AN":1,"SAFFL":"Y","ITTFL":"Y","EFFFL":"Y","COMPFL":"Y","SITEID":"701","AGE":79,"AGEGR1":"65-80","SEX":"F","RACE":"WHITE","ARMCD":"Pbo","TRTSDT":"2013-09-23","TRTEDT":"2014-03-16"},{"STUDYID":"CDISCPILOT01","USUBJID":"01-701-1180","DOMAIN":"ADQS","PARAMCD":"NPTOT9","PARAM":"NPI-X 9-Domain Total Score","PARAMN":1,"AVISIT":"Baseline","AVISITN":0,"ADT":"2013-02-12","ADY":1,"AVAL":0,"BASE":0,"CHG":null,"ABLFL":"Y","TRT01A":"Xanomeline High Dose","TRT01AN":3,"SAFFL":"Y","ITTFL":"Y","EFFFL":"Y","COMPFL":"N","SITEID":"701","AGE":56,"AGEGR1":"<65","SEX":"M","RACE":"WHITE","ARMCD":"Xan_Hi","TRTSDT":"2013-02-12","TRTEDT":"2013-03-18"},{"STUDYID":"CDISCPILOT01","USUBJID":"01-701-1180","DOMAIN":"ADQS","PARAMCD":"NPTOT9","PARAM":"NPI-X 9-Domain Total Score","PARAMN":1,"AVISIT":"Week 2","AVISITN":2,"ADT":"2013-02-25","ADY":14,"AVAL":0,"BASE":0,"CHG":0,"ABLFL":null,"TRT01A":"Xanomeline High Dose","TRT01AN":3,"SAFFL":"Y","ITTFL":"Y","EFFFL":"Y","COMPFL":"N","SITEID":"701","AGE":56,"AGEGR1":"<65","SEX":"M","RACE":"WHITE","ARMCD":"Xan_Hi","TRTSDT":"2013-02-12","TRTEDT":"2013-03-18"},{"STUDYID":"CDISCPILOT01","USUBJID":"01-701-1180","DOMAIN":"ADQS","PARAMCD":"NPTOT9","PARAM":"NPI-X 9-Domain Total Score","PARAMN":1,"AVISIT":"Week 4","AVISITN":4,"ADT":"2013-03-11","ADY":28,"AVAL":0,"BASE":0,"CHG":0,"ABLFL":null,"TRT01A":"Xanomeline High Dose","TRT01AN":3,"SAFFL":"Y","ITTFL":"Y","EFFFL":"Y","COMPFL":"N","SITEID":"701","AGE":56,"AGEGR1":"<65","SEX":"M","RACE":"WHITE","ARMCD":"Xan_Hi","TRTSDT":"2013-02-12","TRTEDT":"2013-03-18"},{"STUDYID":"CDISCPILOT01","USUBJID":"01-701-1180","DOMAIN":"ADQS","PARAMCD":"NPTOT9","PARAM":"NPI-X 9-Domain Total Score","PARAMN":1,"AVISIT":"Week 6","AVISITN":6,"ADT":"2013-03-23","ADY":40,"AVAL":0,"BASE":0,"CHG":0,"ABLFL":null,"TRT01A":"Xanomeline High Dose","TRT01AN":3,"SAFFL":"Y","ITTFL":"Y","EFFFL":"Y","COMPFL":"N","SITEID":"701","AGE":56,"AGEGR1":"<65","SEX":"M","RACE":"WHITE","ARMCD":"Xan_Hi","TRTSDT":"2013-02-12","TRTEDT":"2013-03-18"},{"STUDYID":"CDISCPILOT01","USUBJID":"01-701-1180","DOMAIN":"ADQS","PARAMCD":"NPTMN24","PARAM":"Mean NPI-X 9-Domain Total Score (Weeks 4-24)","PARAMN":2,"AVISIT":"Weeks 4-24 Mean","AVISITN":99,"ADT":null,"ADY":null,"AVAL":0,"BASE":0,"CHG":0,"ABLFL":null,"TRT01A":"Xanomeline High Dose","TRT01AN":3,"SAFFL":"Y","ITTFL":"Y","EFFFL":"Y","COMPFL":"N","SITEID":"701","AGE":56,"AGEGR1":"<65","SEX":"M","RACE":"WHITE","ARMCD":"Xan_Hi","TRTSDT":"2013-02-12","TRTEDT":"2013-03-18"},{"STUDYID":"CDISCPILOT01","USUBJID":"01-701-1181","DOMAIN":"ADQS","PARAMCD":"NPTOT9","PARAM":"NPI-X 9-Domain Total Score","PARAMN":1,"AVISIT":"Baseline","AVISITN":0,"ADT":"2013-12-05","ADY":1,"AVAL":8,"BASE":8,"CHG":null,"ABLFL":"Y","TRT01A":"Xanomeline High Dose","TRT01AN":3,"SAFFL":"Y","ITTFL":"Y","EFFFL":"Y","COMPFL":"N","SITEID":"701","AGE":79,"AGEGR1":"65-80","SEX":"F","RACE":"WHITE","ARMCD":"Xan_Hi","TRTSDT":"2013-12-05","TRTEDT":"2013-12-09"},{"STUDYID":"CDISCPILOT01","USUBJID":"01-701-1181","DOMAIN":"ADQS","PARAMCD":"NPTOT9","PARAM":"NPI-X 9-Domain Total Score","PARAMN":1,"AVISIT":"Week 2","AVISITN":2,"ADT":"2013-12-12","ADY":8,"AVAL":10,"BASE":8,"CHG":2,"ABLFL":null,"TRT01A":"Xanomeline High Dose","TRT01AN":3,"SAFFL":"Y","ITTFL":"Y","EFFFL":"Y","COMPFL":"N","SITEID":"701","AGE":79,"AGEGR1":"65-80","SEX":"F","RACE":"WHITE","ARMCD":"Xan_Hi","TRTSDT":"2013-12-05","TRTEDT":"2013-12-09"},{"STUDYID":"CDISCPILOT01","USUBJID":"01-701-1181","DOMAIN":"ADQS","PARAMCD":"NPTMN24","PARAM":"Mean NPI-X 9-Domain Total Score (Weeks 4-24)","PARAMN":2,"AVISIT":"Weeks 4-24 Mean","AVISITN":99,"ADT":null,"ADY":null,"AVAL":null,"BASE":8,"CHG":null,"ABLFL":null,"TRT01A":"Xanomeline High Dose","TRT01AN":3,"SAFFL":"Y","ITTFL":"Y","EFFFL":"Y","COMPFL":"N","SITEID":"701","AGE":79,"AGEGR1":"65-80","SEX":"F","RACE":"WHITE","ARMCD":"Xan_Hi","TRTSDT":"2013-12-05","TRTEDT":"2013-12-09"},{"STUDYID":"CDISCPILOT01","USUBJID":"01-701-1188","DOMAIN":"ADQS","PARAMCD":"NPTOT9","PARAM":"NPI-X 9-Domain Total Score","PARAMN":1,"AVISIT":"Baseline","AVISITN":0,"ADT":"2013-02-15","ADY":1,"AVAL":0,"BASE":0,"CHG":null,"ABLFL":"Y","TRT01A":"Xanomeline Low Dose","TRT01AN":2,"SAFFL":"Y","ITTFL":"Y","EFFFL":"Y","COMPFL":"N","SITEID":"701","AGE":71,"AGEGR1":"65-80","SEX":"M","RACE":"WHITE","ARMCD":"Xan_Lo","TRTSDT":"2013-02-15","TRTEDT":"2013-03-24"},{"STUDYID":"CDISCPILOT01","USUBJID":"01-701-1188","DOMAIN":"ADQS","PARAMCD":"NPTOT9","PARAM":"NPI-X 9-Domain Total Score","PARAMN":1,"AVISIT":"Week 2","AVISITN":2,"ADT":"2013-03-02","ADY":16,"AVAL":0,"BASE":0,"CHG":0,"ABLFL":null,"TRT01A":"Xanomeline Low Dose","TRT01AN":2,"SAFFL":"Y","ITTFL":"Y","EFFFL":"Y","COMPFL":"N","SITEID":"701","AGE":71,"AGEGR1":"65-80","SEX":"M","RACE":"WHITE","ARMCD":"Xan_Lo","TRTSDT":"2013-02-15","TRTEDT":"2013-03-24"},{"STUDYID":"CDISCPILOT01","USUBJID":"01-701-1188","DOMAIN":"ADQS","PARAMCD":"NPTOT9","PARAM":"NPI-X 9-Domain Total Score","PARAMN":1,"AVISIT":"Week 4","AVISITN":4,"ADT":"2013-03-16","ADY":30,"AVAL":0,"BASE":0,"CHG":0,"ABLFL":null,"TRT01A":"Xanomeline Low Dose","TRT01AN":2,"SAFFL":"Y","ITTFL":"Y","EFFFL":"Y","COMPFL":"N","SITEID":"701","AGE":71,"AGEGR1":"65-80","SEX":"M","RACE":"WHITE","ARMCD":"Xan_Lo","TRTSDT":"2013-02-15","TRTEDT":"2013-03-24"},{"STUDYID":"CDISCPILOT01","USUBJID":"01-701-1188","DOMAIN":"ADQS","PARAMCD":"NPTOT9","PARAM":"NPI-X 9-Domain Total Score","PARAMN":1,"AVISIT":"Week 6","AVISITN":6,"ADT":"2013-03-25","ADY":39,"AVAL":0,"BASE":0,"CHG":0,"ABLFL":null,"TRT01A":"Xanomeline Low Dose","TRT01AN":2,"SAFFL":"Y","ITTFL":"Y","EFFFL":"Y","COMPFL":"N","SITEID":"701","AGE":71,"AGEGR1":"65-80","SEX":"M","RACE":"WHITE","ARMCD":"Xan_Lo","TRTSDT":"2013-02-15","TRTEDT":"2013-03-24"},{"STUDYID":"CDISCPILOT01","USUBJID":"01-701-1188","DOMAIN":"ADQS","PARAMCD":"NPTMN24","PARAM":"Mean NPI-X 9-Domain Total Score (Weeks 4-24)","PARAMN":2,"AVISIT":"Weeks 4-24 Mean","AVISITN":99,"ADT":null,"ADY":null,"AVAL":0,"BASE":0,"CHG":0,"ABLFL":null,"TRT01A":"Xanomeline Low Dose","TRT01AN":2,"SAFFL":"Y","ITTFL":"Y","EFFFL":"Y","COMPFL":"N","SITEID":"701","AGE":71,"AGEGR1":"65-80","SEX":"M","RACE":"WHITE","ARMCD":"Xan_Lo","TRTSDT":"2013-02-15","TRTEDT":"2013-03-24"},{"STUDYID":"CDISCPILOT01","USUBJID":"01-701-1192","DOMAIN":"ADQS","PARAMCD":"NPTOT9","PARAM":"NPI-X 9-Domain Total Score","PARAMN":1,"AVISIT":"Baseline","AVISITN":0,"ADT":"2012-07-22","ADY":1,"AVAL":2,"BASE":2,"CHG":null,"ABLFL":"Y","TRT01A":"Xanomeline Low Dose","TRT01AN":2,"SAFFL":"Y","ITTFL":"Y","EFFFL":"Y","COMPFL":"Y","SITEID":"701","AGE":80,"AGEGR1":"65-80","SEX":"F","RACE":"WHITE","ARMCD":"Xan_Lo","TRTSDT":"2012-07-22","TRTEDT":"2013-01-20"},{"STUDYID":"CDISCPILOT01","USUBJID":"01-701-1192","DOMAIN":"ADQS","PARAMCD":"NPTOT9","PARAM":"NPI-X 9-Domain Total Score","PARAMN":1,"AVISIT":"Week 2","AVISITN":2,"ADT":"2012-08-07","ADY":17,"AVAL":0,"BASE":2,"CHG":-2,"ABLFL":null,"TRT01A":"Xanomeline Low Dose","TRT01AN":2,"SAFFL":"Y","ITTFL":"Y","EFFFL":"Y","COMPFL":"Y","SITEID":"701","AGE":80,"AGEGR1":"65-80","SEX":"F","RACE":"WHITE","ARMCD":"Xan_Lo","TRTSDT":"2012-07-22","TRTEDT":"2013-01-20"},{"STUDYID":"CDISCPILOT01","USUBJID":"01-701-1192","DOMAIN":"ADQS","PARAMCD":"NPTOT9","PARAM":"NPI-X 9-Domain Total Score","PARAMN":1,"AVISIT":"Week 4","AVISITN":4,"ADT":"2012-08-21","ADY":31,"AVAL":3,"BASE":2,"CHG":1,"ABLFL":null,"TRT01A":"Xanomeline Low Dose","TRT01AN":2,"SAFFL":"Y","ITTFL":"Y","EFFFL":"Y","COMPFL":"Y","SITEID":"701","AGE":80,"AGEGR1":"65-80","SEX":"F","RACE":"WHITE","ARMCD":"Xan_Lo","TRTSDT":"2012-07-22","TRTEDT":"2013-01-20"},{"STUDYID":"CDISCPILOT01","USUBJID":"01-701-1192","DOMAIN":"ADQS","PARAMCD":"NPTOT9","PARAM":"NPI-X 9-Domain Total Score","PARAMN":1,"AVISIT":"Week 6","AVISITN":6,"ADT":"2012-09-04","ADY":45,"AVAL":1,"BASE":2,"CHG":-1,"ABLFL":null,"TRT01A":"Xanomeline Low Dose","TRT01AN":2,"SAFFL":"Y","ITTFL":"Y","EFFFL":"Y","COMPFL":"Y","SITEID":"701","AGE":80,"AGEGR1":"65-80","SEX":"F","RACE":"WHITE","ARMCD":"Xan_Lo","TRTSDT":"2012-07-22","TRTEDT":"2013-01-20"},{"STUDYID":"CDISCPILOT01","USUBJID":"01-701-1192","DOMAIN":"ADQS","PARAMCD":"NPTOT9","PARAM":"NPI-X 9-Domain Total Score","PARAMN":1,"AVISIT":"Week 8","AVISITN":8,"ADT":"2012-09-23","ADY":64,"AVAL":1,"BASE":2,"CHG":-1,"ABLFL":null,"TRT01A":"Xanomeline Low Dose","TRT01AN":2,"SAFFL":"Y","ITTFL":"Y","EFFFL":"Y","COMPFL":"Y","SITEID":"701","AGE":80,"AGEGR1":"65-80","SEX":"F","RACE":"WHITE","ARMCD":"Xan_Lo","TRTSDT":"2012-07-22","TRTEDT":"2013-01-20"},{"STUDYID":"CDISCPILOT01","USUBJID":"01-701-1192","DOMAIN":"ADQS","PARAMCD":"NPTOT9","PARAM":"NPI-X 9-Domain Total Score","PARAMN":1,"AVISIT":"Week 10","AVISITN":10,"ADT":"2012-09-30","ADY":71,"AVAL":1,"BASE":2,"CHG":-1,"ABLFL":null,"TRT01A":"Xanomeline Low Dose","TRT01AN":2,"SAFFL":"Y","ITTFL":"Y","EFFFL":"Y","COMPFL":"Y","SITEID":"701","AGE":80,"AGEGR1":"65-80","SEX":"F","RACE":"WHITE","ARMCD":"Xan_Lo","TRTSDT":"2012-07-22","TRTEDT":"2013-01-20"},{"STUDYID":"CDISCPILOT01","USUBJID":"01-701-1192","DOMAIN":"ADQS","PARAMCD":"NPTOT9","PARAM":"NPI-X 9-Domain Total Score","PARAMN":1,"AVISIT":"Week 12","AVISITN":12,"ADT":"2012-10-14","ADY":85,"AVAL":1,"BASE":2,"CHG":-1,"ABLFL":null,"TRT01A":"Xanomeline Low Dose","TRT01AN":2,"SAFFL":"Y","ITTFL":"Y","EFFFL":"Y","COMPFL":"Y","SITEID":"701","AGE":80,"AGEGR1":"65-80","SEX":"F","RACE":"WHITE","ARMCD":"Xan_Lo","TRTSDT":"2012-07-22","TRTEDT":"2013-01-20"},{"STUDYID":"CDISCPILOT01","USUBJID":"01-701-1192","DOMAIN":"ADQS","PARAMCD":"NPTOT9","PARAM":"NPI-X 9-Domain Total Score","PARAMN":1,"AVISIT":"Week 14","AVISITN":14,"ADT":"2012-10-29","ADY":100,"AVAL":1,"BASE":2,"CHG":-1,"ABLFL":null,"TRT01A":"Xanomeline Low Dose","TRT01AN":2,"SAFFL":"Y","ITTFL":"Y","EFFFL":"Y","COMPFL":"Y","SITEID":"701","AGE":80,"AGEGR1":"65-80","SEX":"F","RACE":"WHITE","ARMCD":"Xan_Lo","TRTSDT":"2012-07-22","TRTEDT":"2013-01-20"},{"STUDYID":"CDISCPILOT01","USUBJID":"01-701-1192","DOMAIN":"ADQS","PARAMCD":"NPTOT9","PARAM":"NPI-X 9-Domain Total Score","PARAMN":1,"AVISIT":"Week 16","AVISITN":16,"ADT":"2012-11-15","ADY":117,"AVAL":0,"BASE":2,"CHG":-2,"ABLFL":null,"TRT01A":"Xanomeline Low Dose","TRT01AN":2,"SAFFL":"Y","ITTFL":"Y","EFFFL":"Y","COMPFL":"Y","SITEID":"701","AGE":80,"AGEGR1":"65-80","SEX":"F","RACE":"WHITE","ARMCD":"Xan_Lo","TRTSDT":"2012-07-22","TRTEDT":"2013-01-20"},{"STUDYID":"CDISCPILOT01","USUBJID":"01-701-1192","DOMAIN":"ADQS","PARAMCD":"NPTOT9","PARAM":"NPI-X 9-Domain Total Score","PARAMN":1,"AVISIT":"Week 18","AVISITN":18,"ADT":"2012-11-26","ADY":128,"AVAL":0,"BASE":2,"CHG":-2,"ABLFL":null,"TRT01A":"Xanomeline Low Dose","TRT01AN":2,"SAFFL":"Y","ITTFL":"Y","EFFFL":"Y","COMPFL":"Y","SITEID":"701","AGE":80,"AGEGR1":"65-80","SEX":"F","RACE":"WHITE","ARMCD":"Xan_Lo","TRTSDT":"2012-07-22","TRTEDT":"2013-01-20"},{"STUDYID":"CDISCPILOT01","USUBJID":"01-701-1192","DOMAIN":"ADQS","PARAMCD":"NPTOT9","PARAM":"NPI-X 9-Domain Total Score","PARAMN":1,"AVISIT":"Week 20","AVISITN":20,"ADT":"2012-12-13","ADY":145,"AVAL":0,"BASE":2,"CHG":-2,"ABLFL":null,"TRT01A":"Xanomeline Low Dose","TRT01AN":2,"SAFFL":"Y","ITTFL":"Y","EFFFL":"Y","COMPFL":"Y","SITEID":"701","AGE":80,"AGEGR1":"65-80","SEX":"F","RACE":"WHITE","ARMCD":"Xan_Lo","TRTSDT":"2012-07-22","TRTEDT":"2013-01-20"},{"STUDYID":"CDISCPILOT01","USUBJID":"01-701-1192","DOMAIN":"ADQS","PARAMCD":"NPTOT9","PARAM":"NPI-X 9-Domain Total Score","PARAMN":1,"AVISIT":"Week 22","AVISITN":22,"ADT":"2012-12-27","ADY":159,"AVAL":0,"BASE":2,"CHG":-2,"ABLFL":null,"TRT01A":"Xanomeline Low Dose","TRT01AN":2,"SAFFL":"Y","ITTFL":"Y","EFFFL":"Y","COMPFL":"Y","SITEID":"701","AGE":80,"AGEGR1":"65-80","SEX":"F","RACE":"WHITE","ARMCD":"Xan_Lo","TRTSDT":"2012-07-22","TRTEDT":"2013-01-20"},{"STUDYID":"CDISCPILOT01","USUBJID":"01-701-1192","DOMAIN":"ADQS","PARAMCD":"NPTOT9","PARAM":"NPI-X 9-Domain Total Score","PARAMN":1,"AVISIT":"Week 24","AVISITN":24,"ADT":"2013-01-11","ADY":174,"AVAL":0,"BASE":2,"CHG":-2,"ABLFL":null,"TRT01A":"Xanomeline Low Dose","TRT01AN":2,"SAFFL":"Y","ITTFL":"Y","EFFFL":"Y","COMPFL":"Y","SITEID":"701","AGE":80,"AGEGR1":"65-80","SEX":"F","RACE":"WHITE","ARMCD":"Xan_Lo","TRTSDT":"2012-07-22","TRTEDT":"2013-01-20"},{"STUDYID":"CDISCPILOT01","USUBJID":"01-701-1192","DOMAIN":"ADQS","PARAMCD":"NPTMN24","PARAM":"Mean NPI-X 9-Domain Total Score (Weeks 4-24)","PARAMN":2,"AVISIT":"Weeks 4-24 Mean","AVISITN":99,"ADT":null,"ADY":null,"AVAL":0.7273,"BASE":2,"CHG":-1.2727,"ABLFL":null,"TRT01A":"Xanomeline Low Dose","TRT01AN":2,"SAFFL":"Y","ITTFL":"Y","EFFFL":"Y","COMPFL":"Y","SITEID":"701","AGE":80,"AGEGR1":"65-80","SEX":"F","RACE":"WHITE","ARMCD":"Xan_Lo","TRTSDT":"2012-07-22","TRTEDT":"2013-01-20"},{"STUDYID":"CDISCPILOT01","USUBJID":"01-701-1203","DOMAIN":"ADQS","PARAMCD":"NPTOT9","PARAM":"NPI-X 9-Domain Total Score","PARAMN":1,"AVISIT":"Baseline","AVISITN":0,"ADT":"2013-02-02","ADY":1,"AVAL":14,"BASE":14,"CHG":null,"ABLFL":"Y","TRT01A":"Placebo","TRT01AN":1,"SAFFL":"Y","ITTFL":"Y","EFFFL":"Y","COMPFL":"Y","SITEID":"701","AGE":81,"AGEGR1":">80","SEX":"F","RACE":"BLACK OR AFRICAN AMERICAN","ARMCD":"Pbo","TRTSDT":"2013-02-02","TRTEDT":"2013-08-03"},{"STUDYID":"CDISCPILOT01","USUBJID":"01-701-1203","DOMAIN":"ADQS","PARAMCD":"NPTOT9","PARAM":"NPI-X 9-Domain Total Score","PARAMN":1,"AVISIT":"Week 2","AVISITN":2,"ADT":"2013-02-23","ADY":22,"AVAL":7,"BASE":14,"CHG":-7,"ABLFL":null,"TRT01A":"Placebo","TRT01AN":1,"SAFFL":"Y","ITTFL":"Y","EFFFL":"Y","COMPFL":"Y","SITEID":"701","AGE":81,"AGEGR1":">80","SEX":"F","RACE":"BLACK OR AFRICAN AMERICAN","ARMCD":"Pbo","TRTSDT":"2013-02-02","TRTEDT":"2013-08-03"},{"STUDYID":"CDISCPILOT01","USUBJID":"01-701-1203","DOMAIN":"ADQS","PARAMCD":"NPTOT9","PARAM":"NPI-X 9-Domain Total Score","PARAMN":1,"AVISIT":"Week 4","AVISITN":4,"ADT":"2013-03-02","ADY":29,"AVAL":2,"BASE":14,"CHG":-12,"ABLFL":null,"TRT01A":"Placebo","TRT01AN":1,"SAFFL":"Y","ITTFL":"Y","EFFFL":"Y","COMPFL":"Y","SITEID":"701","AGE":81,"AGEGR1":">80","SEX":"F","RACE":"BLACK OR AFRICAN AMERICAN","ARMCD":"Pbo","TRTSDT":"2013-02-02","TRTEDT":"2013-08-03"},{"STUDYID":"CDISCPILOT01","USUBJID":"01-701-1203","DOMAIN":"ADQS","PARAMCD":"NPTOT9","PARAM":"NPI-X 9-Domain Total Score","PARAMN":1,"AVISIT":"Week 6","AVISITN":6,"ADT":"2013-03-16","ADY":43,"AVAL":2,"BASE":14,"CHG":-12,"ABLFL":null,"TRT01A":"Placebo","TRT01AN":1,"SAFFL":"Y","ITTFL":"Y","EFFFL":"Y","COMPFL":"Y","SITEID":"701","AGE":81,"AGEGR1":">80","SEX":"F","RACE":"BLACK OR AFRICAN AMERICAN","ARMCD":"Pbo","TRTSDT":"2013-02-02","TRTEDT":"2013-08-03"},{"STUDYID":"CDISCPILOT01","USUBJID":"01-701-1203","DOMAIN":"ADQS","PARAMCD":"NPTOT9","PARAM":"NPI-X 9-Domain Total Score","PARAMN":1,"AVISIT":"Week 8","AVISITN":8,"ADT":"2013-03-30","ADY":57,"AVAL":5,"BASE":14,"CHG":-9,"ABLFL":null,"TRT01A":"Placebo","TRT01AN":1,"SAFFL":"Y","ITTFL":"Y","EFFFL":"Y","COMPFL":"Y","SITEID":"701","AGE":81,"AGEGR1":">80","SEX":"F","RACE":"BLACK OR AFRICAN AMERICAN","ARMCD":"Pbo","TRTSDT":"2013-02-02","TRTEDT":"2013-08-03"},{"STUDYID":"CDISCPILOT01","USUBJID":"01-701-1203","DOMAIN":"ADQS","PARAMCD":"NPTOT9","PARAM":"NPI-X 9-Domain Total Score","PARAMN":1,"AVISIT":"Week 10","AVISITN":10,"ADT":"2013-04-13","ADY":71,"AVAL":5,"BASE":14,"CHG":-9,"ABLFL":null,"TRT01A":"Placebo","TRT01AN":1,"SAFFL":"Y","ITTFL":"Y","EFFFL":"Y","COMPFL":"Y","SITEID":"701","AGE":81,"AGEGR1":">80","SEX":"F","RACE":"BLACK OR AFRICAN AMERICAN","ARMCD":"Pbo","TRTSDT":"2013-02-02","TRTEDT":"2013-08-03"},{"STUDYID":"CDISCPILOT01","USUBJID":"01-701-1203","DOMAIN":"ADQS","PARAMCD":"NPTOT9","PARAM":"NPI-X 9-Domain Total Score","PARAMN":1,"AVISIT":"Week 12","AVISITN":12,"ADT":"2013-05-09","ADY":97,"AVAL":5,"BASE":14,"CHG":-9,"ABLFL":null,"TRT01A":"Placebo","TRT01AN":1,"SAFFL":"Y","ITTFL":"Y","EFFFL":"Y","COMPFL":"Y","SITEID":"701","AGE":81,"AGEGR1":">80","SEX":"F","RACE":"BLACK OR AFRICAN AMERICAN","ARMCD":"Pbo","TRTSDT":"2013-02-02","TRTEDT":"2013-08-03"},{"STUDYID":"CDISCPILOT01","USUBJID":"01-701-1203","DOMAIN":"ADQS","PARAMCD":"NPTOT9","PARAM":"NPI-X 9-Domain Total Score","PARAMN":1,"AVISIT":"Week 14","AVISITN":14,"ADT":"2013-05-11","ADY":99,"AVAL":5,"BASE":14,"CHG":-9,"ABLFL":null,"TRT01A":"Placebo","TRT01AN":1,"SAFFL":"Y","ITTFL":"Y","EFFFL":"Y","COMPFL":"Y","SITEID":"701","AGE":81,"AGEGR1":">80","SEX":"F","RACE":"BLACK OR AFRICAN AMERICAN","ARMCD":"Pbo","TRTSDT":"2013-02-02","TRTEDT":"2013-08-03"},{"STUDYID":"CDISCPILOT01","USUBJID":"01-701-1203","DOMAIN":"ADQS","PARAMCD":"NPTOT9","PARAM":"NPI-X 9-Domain Total Score","PARAMN":1,"AVISIT":"Week 16","AVISITN":16,"ADT":"2013-05-25","ADY":113,"AVAL":10,"BASE":14,"CHG":-4,"ABLFL":null,"TRT01A":"Placebo","TRT01AN":1,"SAFFL":"Y","ITTFL":"Y","EFFFL":"Y","COMPFL":"Y","SITEID":"701","AGE":81,"AGEGR1":">80","SEX":"F","RACE":"BLACK OR AFRICAN AMERICAN","ARMCD":"Pbo","TRTSDT":"2013-02-02","TRTEDT":"2013-08-03"},{"STUDYID":"CDISCPILOT01","USUBJID":"01-701-1203","DOMAIN":"ADQS","PARAMCD":"NPTOT9","PARAM":"NPI-X 9-Domain Total Score","PARAMN":1,"AVISIT":"Week 18","AVISITN":18,"ADT":"2013-06-08","ADY":127,"AVAL":3,"BASE":14,"CHG":-11,"ABLFL":null,"TRT01A":"Placebo","TRT01AN":1,"SAFFL":"Y","ITTFL":"Y","EFFFL":"Y","COMPFL":"Y","SITEID":"701","AGE":81,"AGEGR1":">80","SEX":"F","RACE":"BLACK OR AFRICAN AMERICAN","ARMCD":"Pbo","TRTSDT":"2013-02-02","TRTEDT":"2013-08-03"},{"STUDYID":"CDISCPILOT01","USUBJID":"01-701-1203","DOMAIN":"ADQS","PARAMCD":"NPTOT9","PARAM":"NPI-X 9-Domain Total Score","PARAMN":1,"AVISIT":"Week 20","AVISITN":20,"ADT":"2013-06-22","ADY":141,"AVAL":2,"BASE":14,"CHG":-12,"ABLFL":null,"TRT01A":"Placebo","TRT01AN":1,"SAFFL":"Y","ITTFL":"Y","EFFFL":"Y","COMPFL":"Y","SITEID":"701","AGE":81,"AGEGR1":">80","SEX":"F","RACE":"BLACK OR AFRICAN AMERICAN","ARMCD":"Pbo","TRTSDT":"2013-02-02","TRTEDT":"2013-08-03"},{"STUDYID":"CDISCPILOT01","USUBJID":"01-701-1203","DOMAIN":"ADQS","PARAMCD":"NPTOT9","PARAM":"NPI-X 9-Domain Total Score","PARAMN":1,"AVISIT":"Week 22","AVISITN":22,"ADT":"2013-07-07","ADY":156,"AVAL":8,"BASE":14,"CHG":-6,"ABLFL":null,"TRT01A":"Placebo","TRT01AN":1,"SAFFL":"Y","ITTFL":"Y","EFFFL":"Y","COMPFL":"Y","SITEID":"701","AGE":81,"AGEGR1":">80","SEX":"F","RACE":"BLACK OR AFRICAN AMERICAN","ARMCD":"Pbo","TRTSDT":"2013-02-02","TRTEDT":"2013-08-03"},{"STUDYID":"CDISCPILOT01","USUBJID":"01-701-1203","DOMAIN":"ADQS","PARAMCD":"NPTOT9","PARAM":"NPI-X 9-Domain Total Score","PARAMN":1,"AVISIT":"Week 24","AVISITN":24,"ADT":"2013-07-22","ADY":171,"AVAL":11,"BASE":14,"CHG":-3,"ABLFL":null,"TRT01A":"Placebo","TRT01AN":1,"SAFFL":"Y","ITTFL":"Y","EFFFL":"Y","COMPFL":"Y","SITEID":"701","AGE":81,"AGEGR1":">80","SEX":"F","RACE":"BLACK OR AFRICAN AMERICAN","ARMCD":"Pbo","TRTSDT":"2013-02-02","TRTEDT":"2013-08-03"},{"STUDYID":"CDISCPILOT01","USUBJID":"01-701-1203","DOMAIN":"ADQS","PARAMCD":"NPTMN24","PARAM":"Mean NPI-X 9-Domain Total Score (Weeks 4-24)","PARAMN":2,"AVISIT":"Weeks 4-24 Mean","AVISITN":99,"ADT":null,"ADY":null,"AVAL":5.2727,"BASE":14,"CHG":-8.7273,"ABLFL":null,"TRT01A":"Placebo","TRT01AN":1,"SAFFL":"Y","ITTFL":"Y","EFFFL":"Y","COMPFL":"Y","SITEID":"701","AGE":81,"AGEGR1":">80","SEX":"F","RACE":"BLACK OR AFRICAN AMERICAN","ARMCD":"Pbo","TRTSDT":"2013-02-02","TRTEDT":"2013-08-03"},{"STUDYID":"CDISCPILOT01","USUBJID":"01-701-1211","DOMAIN":"ADQS","PARAMCD":"NPTOT9","PARAM":"NPI-X 9-Domain Total Score","PARAMN":1,"AVISIT":"Baseline","AVISITN":0,"ADT":"2012-11-15","ADY":1,"AVAL":3,"BASE":3,"CHG":null,"ABLFL":"Y","TRT01A":"Xanomeline Low Dose","TRT01AN":2,"SAFFL":"Y","ITTFL":"Y","EFFFL":"Y","COMPFL":"N","SITEID":"701","AGE":76,"AGEGR1":"65-80","SEX":"F","RACE":"WHITE","ARMCD":"Xan_Lo","TRTSDT":"2012-11-15","TRTEDT":"2013-01-12"},{"STUDYID":"CDISCPILOT01","USUBJID":"01-701-1211","DOMAIN":"ADQS","PARAMCD":"NPTOT9","PARAM":"NPI-X 9-Domain Total Score","PARAMN":1,"AVISIT":"Week 2","AVISITN":2,"ADT":"2012-11-28","ADY":14,"AVAL":5,"BASE":3,"CHG":2,"ABLFL":null,"TRT01A":"Xanomeline Low Dose","TRT01AN":2,"SAFFL":"Y","ITTFL":"Y","EFFFL":"Y","COMPFL":"N","SITEID":"701","AGE":76,"AGEGR1":"65-80","SEX":"F","RACE":"WHITE","ARMCD":"Xan_Lo","TRTSDT":"2012-11-15","TRTEDT":"2013-01-12"},{"STUDYID":"CDISCPILOT01","USUBJID":"01-701-1211","DOMAIN":"ADQS","PARAMCD":"NPTOT9","PARAM":"NPI-X 9-Domain Total Score","PARAMN":1,"AVISIT":"Week 4","AVISITN":4,"ADT":"2012-12-11","ADY":27,"AVAL":2,"BASE":3,"CHG":-1,"ABLFL":null,"TRT01A":"Xanomeline Low Dose","TRT01AN":2,"SAFFL":"Y","ITTFL":"Y","EFFFL":"Y","COMPFL":"N","SITEID":"701","AGE":76,"AGEGR1":"65-80","SEX":"F","RACE":"WHITE","ARMCD":"Xan_Lo","TRTSDT":"2012-11-15","TRTEDT":"2013-01-12"},{"STUDYID":"CDISCPILOT01","USUBJID":"01-701-1211","DOMAIN":"ADQS","PARAMCD":"NPTOT9","PARAM":"NPI-X 9-Domain Total Score","PARAMN":1,"AVISIT":"Week 6","AVISITN":6,"ADT":"2012-12-25","ADY":41,"AVAL":2,"BASE":3,"CHG":-1,"ABLFL":null,"TRT01A":"Xanomeline Low Dose","TRT01AN":2,"SAFFL":"Y","ITTFL":"Y","EFFFL":"Y","COMPFL":"N","SITEID":"701","AGE":76,"AGEGR1":"65-80","SEX":"F","RACE":"WHITE","ARMCD":"Xan_Lo","TRTSDT":"2012-11-15","TRTEDT":"2013-01-12"},{"STUDYID":"CDISCPILOT01","USUBJID":"01-701-1211","DOMAIN":"ADQS","PARAMCD":"NPTOT9","PARAM":"NPI-X 9-Domain Total Score","PARAMN":1,"AVISIT":"Week 8","AVISITN":8,"ADT":"2013-01-08","ADY":55,"AVAL":3,"BASE":3,"CHG":0,"ABLFL":null,"TRT01A":"Xanomeline Low Dose","TRT01AN":2,"SAFFL":"Y","ITTFL":"Y","EFFFL":"Y","COMPFL":"N","SITEID":"701","AGE":76,"AGEGR1":"65-80","SEX":"F","RACE":"WHITE","ARMCD":"Xan_Lo","TRTSDT":"2012-11-15","TRTEDT":"2013-01-12"},{"STUDYID":"CDISCPILOT01","USUBJID":"01-701-1211","DOMAIN":"ADQS","PARAMCD":"NPTMN24","PARAM":"Mean NPI-X 9-Domain Total Score (Weeks 4-24)","PARAMN":2,"AVISIT":"Weeks 4-24 Mean","AVISITN":99,"ADT":null,"ADY":null,"AVAL":2.3333,"BASE":3,"CHG":-0.6667,"ABLFL":null,"TRT01A":"Xanomeline Low Dose","TRT01AN":2,"SAFFL":"Y","ITTFL":"Y","EFFFL":"Y","COMPFL":"N","SITEID":"701","AGE":76,"AGEGR1":"65-80","SEX":"F","RACE":"WHITE","ARMCD":"Xan_Lo","TRTSDT":"2012-11-15","TRTEDT":"2013-01-12"},{"STUDYID":"CDISCPILOT01","USUBJID":"01-701-1234","DOMAIN":"ADQS","PARAMCD":"NPTOT9","PARAM":"NPI-X 9-Domain Total Score","PARAMN":1,"AVISIT":"Baseline","AVISITN":0,"ADT":"2013-03-30","ADY":1,"AVAL":0,"BASE":0,"CHG":null,"ABLFL":"Y","TRT01A":"Placebo","TRT01AN":1,"SAFFL":"Y","ITTFL":"Y","EFFFL":"Y","COMPFL":"Y","SITEID":"701","AGE":69,"AGEGR1":"65-80","SEX":"M","RACE":"WHITE","ARMCD":"Pbo","TRTSDT":"2013-03-30","TRTEDT":"2013-09-22"},{"STUDYID":"CDISCPILOT01","USUBJID":"01-701-1234","DOMAIN":"ADQS","PARAMCD":"NPTOT9","PARAM":"NPI-X 9-Domain Total Score","PARAMN":1,"AVISIT":"Week 2","AVISITN":2,"ADT":"2013-04-21","ADY":23,"AVAL":0,"BASE":0,"CHG":0,"ABLFL":null,"TRT01A":"Placebo","TRT01AN":1,"SAFFL":"Y","ITTFL":"Y","EFFFL":"Y","COMPFL":"Y","SITEID":"701","AGE":69,"AGEGR1":"65-80","SEX":"M","RACE":"WHITE","ARMCD":"Pbo","TRTSDT":"2013-03-30","TRTEDT":"2013-09-22"},{"STUDYID":"CDISCPILOT01","USUBJID":"01-701-1234","DOMAIN":"ADQS","PARAMCD":"NPTOT9","PARAM":"NPI-X 9-Domain Total Score","PARAMN":1,"AVISIT":"Week 4","AVISITN":4,"ADT":"2013-04-28","ADY":30,"AVAL":0,"BASE":0,"CHG":0,"ABLFL":null,"TRT01A":"Placebo","TRT01AN":1,"SAFFL":"Y","ITTFL":"Y","EFFFL":"Y","COMPFL":"Y","SITEID":"701","AGE":69,"AGEGR1":"65-80","SEX":"M","RACE":"WHITE","ARMCD":"Pbo","TRTSDT":"2013-03-30","TRTEDT":"2013-09-22"},{"STUDYID":"CDISCPILOT01","USUBJID":"01-701-1234","DOMAIN":"ADQS","PARAMCD":"NPTOT9","PARAM":"NPI-X 9-Domain Total Score","PARAMN":1,"AVISIT":"Week 6","AVISITN":6,"ADT":"2013-05-08","ADY":40,"AVAL":0,"BASE":0,"CHG":0,"ABLFL":null,"TRT01A":"Placebo","TRT01AN":1,"SAFFL":"Y","ITTFL":"Y","EFFFL":"Y","COMPFL":"Y","SITEID":"701","AGE":69,"AGEGR1":"65-80","SEX":"M","RACE":"WHITE","ARMCD":"Pbo","TRTSDT":"2013-03-30","TRTEDT":"2013-09-22"},{"STUDYID":"CDISCPILOT01","USUBJID":"01-701-1234","DOMAIN":"ADQS","PARAMCD":"NPTOT9","PARAM":"NPI-X 9-Domain Total Score","PARAMN":1,"AVISIT":"Week 8","AVISITN":8,"ADT":"2013-05-26","ADY":58,"AVAL":0,"BASE":0,"CHG":0,"ABLFL":null,"TRT01A":"Placebo","TRT01AN":1,"SAFFL":"Y","ITTFL":"Y","EFFFL":"Y","COMPFL":"Y","SITEID":"701","AGE":69,"AGEGR1":"65-80","SEX":"M","RACE":"WHITE","ARMCD":"Pbo","TRTSDT":"2013-03-30","TRTEDT":"2013-09-22"},{"STUDYID":"CDISCPILOT01","USUBJID":"01-701-1234","DOMAIN":"ADQS","PARAMCD":"NPTOT9","PARAM":"NPI-X 9-Domain Total Score","PARAMN":1,"AVISIT":"Week 10","AVISITN":10,"ADT":"2013-06-09","ADY":72,"AVAL":0,"BASE":0,"CHG":0,"ABLFL":null,"TRT01A":"Placebo","TRT01AN":1,"SAFFL":"Y","ITTFL":"Y","EFFFL":"Y","COMPFL":"Y","SITEID":"701","AGE":69,"AGEGR1":"65-80","SEX":"M","RACE":"WHITE","ARMCD":"Pbo","TRTSDT":"2013-03-30","TRTEDT":"2013-09-22"},{"STUDYID":"CDISCPILOT01","USUBJID":"01-701-1234","DOMAIN":"ADQS","PARAMCD":"NPTOT9","PARAM":"NPI-X 9-Domain Total Score","PARAMN":1,"AVISIT":"Week 12","AVISITN":12,"ADT":"2013-07-07","ADY":100,"AVAL":0,"BASE":0,"CHG":0,"ABLFL":null,"TRT01A":"Placebo","TRT01AN":1,"SAFFL":"Y","ITTFL":"Y","EFFFL":"Y","COMPFL":"Y","SITEID":"701","AGE":69,"AGEGR1":"65-80","SEX":"M","RACE":"WHITE","ARMCD":"Pbo","TRTSDT":"2013-03-30","TRTEDT":"2013-09-22"},{"STUDYID":"CDISCPILOT01","USUBJID":"01-701-1234","DOMAIN":"ADQS","PARAMCD":"NPTOT9","PARAM":"NPI-X 9-Domain Total Score","PARAMN":1,"AVISIT":"Week 16","AVISITN":16,"ADT":"2013-07-27","ADY":120,"AVAL":0,"BASE":0,"CHG":0,"ABLFL":null,"TRT01A":"Placebo","TRT01AN":1,"SAFFL":"Y","ITTFL":"Y","EFFFL":"Y","COMPFL":"Y","SITEID":"701","AGE":69,"AGEGR1":"65-80","SEX":"M","RACE":"WHITE","ARMCD":"Pbo","TRTSDT":"2013-03-30","TRTEDT":"2013-09-22"},{"STUDYID":"CDISCPILOT01","USUBJID":"01-701-1234","DOMAIN":"ADQS","PARAMCD":"NPTOT9","PARAM":"NPI-X 9-Domain Total Score","PARAMN":1,"AVISIT":"Week 18","AVISITN":18,"ADT":"2013-08-10","ADY":134,"AVAL":0,"BASE":0,"CHG":0,"ABLFL":null,"TRT01A":"Placebo","TRT01AN":1,"SAFFL":"Y","ITTFL":"Y","EFFFL":"Y","COMPFL":"Y","SITEID":"701","AGE":69,"AGEGR1":"65-80","SEX":"M","RACE":"WHITE","ARMCD":"Pbo","TRTSDT":"2013-03-30","TRTEDT":"2013-09-22"},{"STUDYID":"CDISCPILOT01","USUBJID":"01-701-1234","DOMAIN":"ADQS","PARAMCD":"NPTOT9","PARAM":"NPI-X 9-Domain Total Score","PARAMN":1,"AVISIT":"Week 20","AVISITN":20,"ADT":"2013-08-18","ADY":142,"AVAL":0,"BASE":0,"CHG":0,"ABLFL":null,"TRT01A":"Placebo","TRT01AN":1,"SAFFL":"Y","ITTFL":"Y","EFFFL":"Y","COMPFL":"Y","SITEID":"701","AGE":69,"AGEGR1":"65-80","SEX":"M","RACE":"WHITE","ARMCD":"Pbo","TRTSDT":"2013-03-30","TRTEDT":"2013-09-22"},{"STUDYID":"CDISCPILOT01","USUBJID":"01-701-1234","DOMAIN":"ADQS","PARAMCD":"NPTOT9","PARAM":"NPI-X 9-Domain Total Score","PARAMN":1,"AVISIT":"Week 22","AVISITN":22,"ADT":"2013-09-01","ADY":156,"AVAL":0,"BASE":0,"CHG":0,"ABLFL":null,"TRT01A":"Placebo","TRT01AN":1,"SAFFL":"Y","ITTFL":"Y","EFFFL":"Y","COMPFL":"Y","SITEID":"701","AGE":69,"AGEGR1":"65-80","SEX":"M","RACE":"WHITE","ARMCD":"Pbo","TRTSDT":"2013-03-30","TRTEDT":"2013-09-22"},{"STUDYID":"CDISCPILOT01","USUBJID":"01-701-1234","DOMAIN":"ADQS","PARAMCD":"NPTOT9","PARAM":"NPI-X 9-Domain Total Score","PARAMN":1,"AVISIT":"Week 24","AVISITN":24,"ADT":"2013-09-10","ADY":165,"AVAL":0,"BASE":0,"CHG":0,"ABLFL":null,"TRT01A":"Placebo","TRT01AN":1,"SAFFL":"Y","ITTFL":"Y","EFFFL":"Y","COMPFL":"Y","SITEID":"701","AGE":69,"AGEGR1":"65-80","SEX":"M","RACE":"WHITE","ARMCD":"Pbo","TRTSDT":"2013-03-30","TRTEDT":"2013-09-22"},{"STUDYID":"CDISCPILOT01","USUBJID":"01-701-1234","DOMAIN":"ADQS","PARAMCD":"NPTMN24","PARAM":"Mean NPI-X 9-Domain Total Score (Weeks 4-24)","PARAMN":2,"AVISIT":"Weeks 4-24 Mean","AVISITN":99,"ADT":null,"ADY":null,"AVAL":0,"BASE":0,"CHG":0,"ABLFL":null,"TRT01A":"Placebo","TRT01AN":1,"SAFFL":"Y","ITTFL":"Y","EFFFL":"Y","COMPFL":"Y","SITEID":"701","AGE":69,"AGEGR1":"65-80","SEX":"M","RACE":"WHITE","ARMCD":"Pbo","TRTSDT":"2013-03-30","TRTEDT":"2013-09-22"},{"STUDYID":"CDISCPILOT01","USUBJID":"01-701-1239","DOMAIN":"ADQS","PARAMCD":"NPTOT9","PARAM":"NPI-X 9-Domain Total Score","PARAMN":1,"AVISIT":"Baseline","AVISITN":0,"ADT":"2014-01-11","ADY":1,"AVAL":1,"BASE":1,"CHG":null,"ABLFL":"Y","TRT01A":"Xanomeline High Dose","TRT01AN":3,"SAFFL":"Y","ITTFL":"Y","EFFFL":"Y","COMPFL":"Y","SITEID":"701","AGE":56,"AGEGR1":"<65","SEX":"M","RACE":"WHITE","ARMCD":"Xan_Hi","TRTSDT":"2014-01-11","TRTEDT":"2014-07-10"},{"STUDYID":"CDISCPILOT01","USUBJID":"01-701-1239","DOMAIN":"ADQS","PARAMCD":"NPTOT9","PARAM":"NPI-X 9-Domain Total Score","PARAMN":1,"AVISIT":"Week 2","AVISITN":2,"ADT":"2014-01-25","ADY":15,"AVAL":2,"BASE":1,"CHG":1,"ABLFL":null,"TRT01A":"Xanomeline High Dose","TRT01AN":3,"SAFFL":"Y","ITTFL":"Y","EFFFL":"Y","COMPFL":"Y","SITEID":"701","AGE":56,"AGEGR1":"<65","SEX":"M","RACE":"WHITE","ARMCD":"Xan_Hi","TRTSDT":"2014-01-11","TRTEDT":"2014-07-10"},{"STUDYID":"CDISCPILOT01","USUBJID":"01-701-1239","DOMAIN":"ADQS","PARAMCD":"NPTOT9","PARAM":"NPI-X 9-Domain Total Score","PARAMN":1,"AVISIT":"Week 4","AVISITN":4,"ADT":"2014-02-08","ADY":29,"AVAL":0,"BASE":1,"CHG":-1,"ABLFL":null,"TRT01A":"Xanomeline High Dose","TRT01AN":3,"SAFFL":"Y","ITTFL":"Y","EFFFL":"Y","COMPFL":"Y","SITEID":"701","AGE":56,"AGEGR1":"<65","SEX":"M","RACE":"WHITE","ARMCD":"Xan_Hi","TRTSDT":"2014-01-11","TRTEDT":"2014-07-10"},{"STUDYID":"CDISCPILOT01","USUBJID":"01-701-1239","DOMAIN":"ADQS","PARAMCD":"NPTOT9","PARAM":"NPI-X 9-Domain Total Score","PARAMN":1,"AVISIT":"Week 6","AVISITN":6,"ADT":"2014-02-19","ADY":40,"AVAL":0,"BASE":1,"CHG":-1,"ABLFL":null,"TRT01A":"Xanomeline High Dose","TRT01AN":3,"SAFFL":"Y","ITTFL":"Y","EFFFL":"Y","COMPFL":"Y","SITEID":"701","AGE":56,"AGEGR1":"<65","SEX":"M","RACE":"WHITE","ARMCD":"Xan_Hi","TRTSDT":"2014-01-11","TRTEDT":"2014-07-10"},{"STUDYID":"CDISCPILOT01","USUBJID":"01-701-1239","DOMAIN":"ADQS","PARAMCD":"NPTOT9","PARAM":"NPI-X 9-Domain Total Score","PARAMN":1,"AVISIT":"Week 8","AVISITN":8,"ADT":"2014-03-06","ADY":55,"AVAL":1,"BASE":1,"CHG":0,"ABLFL":null,"TRT01A":"Xanomeline High Dose","TRT01AN":3,"SAFFL":"Y","ITTFL":"Y","EFFFL":"Y","COMPFL":"Y","SITEID":"701","AGE":56,"AGEGR1":"<65","SEX":"M","RACE":"WHITE","ARMCD":"Xan_Hi","TRTSDT":"2014-01-11","TRTEDT":"2014-07-10"},{"STUDYID":"CDISCPILOT01","USUBJID":"01-701-1239","DOMAIN":"ADQS","PARAMCD":"NPTOT9","PARAM":"NPI-X 9-Domain Total Score","PARAMN":1,"AVISIT":"Week 10","AVISITN":10,"ADT":"2014-03-19","ADY":68,"AVAL":0,"BASE":1,"CHG":-1,"ABLFL":null,"TRT01A":"Xanomeline High Dose","TRT01AN":3,"SAFFL":"Y","ITTFL":"Y","EFFFL":"Y","COMPFL":"Y","SITEID":"701","AGE":56,"AGEGR1":"<65","SEX":"M","RACE":"WHITE","ARMCD":"Xan_Hi","TRTSDT":"2014-01-11","TRTEDT":"2014-07-10"},{"STUDYID":"CDISCPILOT01","USUBJID":"01-701-1239","DOMAIN":"ADQS","PARAMCD":"NPTOT9","PARAM":"NPI-X 9-Domain Total Score","PARAMN":1,"AVISIT":"Week 12","AVISITN":12,"ADT":"2014-04-02","ADY":82,"AVAL":0,"BASE":1,"CHG":-1,"ABLFL":null,"TRT01A":"Xanomeline High Dose","TRT01AN":3,"SAFFL":"Y","ITTFL":"Y","EFFFL":"Y","COMPFL":"Y","SITEID":"701","AGE":56,"AGEGR1":"<65","SEX":"M","RACE":"WHITE","ARMCD":"Xan_Hi","TRTSDT":"2014-01-11","TRTEDT":"2014-07-10"},{"STUDYID":"CDISCPILOT01","USUBJID":"01-701-1239","DOMAIN":"ADQS","PARAMCD":"NPTOT9","PARAM":"NPI-X 9-Domain Total Score","PARAMN":1,"AVISIT":"Week 14","AVISITN":14,"ADT":"2014-04-16","ADY":96,"AVAL":0,"BASE":1,"CHG":-1,"ABLFL":null,"TRT01A":"Xanomeline High Dose","TRT01AN":3,"SAFFL":"Y","ITTFL":"Y","EFFFL":"Y","COMPFL":"Y","SITEID":"701","AGE":56,"AGEGR1":"<65","SEX":"M","RACE":"WHITE","ARMCD":"Xan_Hi","TRTSDT":"2014-01-11","TRTEDT":"2014-07-10"},{"STUDYID":"CDISCPILOT01","USUBJID":"01-701-1239","DOMAIN":"ADQS","PARAMCD":"NPTOT9","PARAM":"NPI-X 9-Domain Total Score","PARAMN":1,"AVISIT":"Week 16","AVISITN":16,"ADT":"2014-05-02","ADY":112,"AVAL":0,"BASE":1,"CHG":-1,"ABLFL":null,"TRT01A":"Xanomeline High Dose","TRT01AN":3,"SAFFL":"Y","ITTFL":"Y","EFFFL":"Y","COMPFL":"Y","SITEID":"701","AGE":56,"AGEGR1":"<65","SEX":"M","RACE":"WHITE","ARMCD":"Xan_Hi","TRTSDT":"2014-01-11","TRTEDT":"2014-07-10"},{"STUDYID":"CDISCPILOT01","USUBJID":"01-701-1239","DOMAIN":"ADQS","PARAMCD":"NPTOT9","PARAM":"NPI-X 9-Domain Total Score","PARAMN":1,"AVISIT":"Week 18","AVISITN":18,"ADT":"2014-05-14","ADY":124,"AVAL":0,"BASE":1,"CHG":-1,"ABLFL":null,"TRT01A":"Xanomeline High Dose","TRT01AN":3,"SAFFL":"Y","ITTFL":"Y","EFFFL":"Y","COMPFL":"Y","SITEID":"701","AGE":56,"AGEGR1":"<65","SEX":"M","RACE":"WHITE","ARMCD":"Xan_Hi","TRTSDT":"2014-01-11","TRTEDT":"2014-07-10"},{"STUDYID":"CDISCPILOT01","USUBJID":"01-701-1239","DOMAIN":"ADQS","PARAMCD":"NPTOT9","PARAM":"NPI-X 9-Domain Total Score","PARAMN":1,"AVISIT":"Week 20","AVISITN":20,"ADT":"2014-05-28","ADY":138,"AVAL":0,"BASE":1,"CHG":-1,"ABLFL":null,"TRT01A":"Xanomeline High Dose","TRT01AN":3,"SAFFL":"Y","ITTFL":"Y","EFFFL":"Y","COMPFL":"Y","SITEID":"701","AGE":56,"AGEGR1":"<65","SEX":"M","RACE":"WHITE","ARMCD":"Xan_Hi","TRTSDT":"2014-01-11","TRTEDT":"2014-07-10"},{"STUDYID":"CDISCPILOT01","USUBJID":"01-701-1239","DOMAIN":"ADQS","PARAMCD":"NPTOT9","PARAM":"NPI-X 9-Domain Total Score","PARAMN":1,"AVISIT":"Week 22","AVISITN":22,"ADT":"2014-06-11","ADY":152,"AVAL":0,"BASE":1,"CHG":-1,"ABLFL":null,"TRT01A":"Xanomeline High Dose","TRT01AN":3,"SAFFL":"Y","ITTFL":"Y","EFFFL":"Y","COMPFL":"Y","SITEID":"701","AGE":56,"AGEGR1":"<65","SEX":"M","RACE":"WHITE","ARMCD":"Xan_Hi","TRTSDT":"2014-01-11","TRTEDT":"2014-07-10"},{"STUDYID":"CDISCPILOT01","USUBJID":"01-701-1239","DOMAIN":"ADQS","PARAMCD":"NPTOT9","PARAM":"NPI-X 9-Domain Total Score","PARAMN":1,"AVISIT":"Week 24","AVISITN":24,"ADT":"2014-06-27","ADY":168,"AVAL":0,"BASE":1,"CHG":-1,"ABLFL":null,"TRT01A":"Xanomeline High Dose","TRT01AN":3,"SAFFL":"Y","ITTFL":"Y","EFFFL":"Y","COMPFL":"Y","SITEID":"701","AGE":56,"AGEGR1":"<65","SEX":"M","RACE":"WHITE","ARMCD":"Xan_Hi","TRTSDT":"2014-01-11","TRTEDT":"2014-07-10"},{"STUDYID":"CDISCPILOT01","USUBJID":"01-701-1239","DOMAIN":"ADQS","PARAMCD":"NPTMN24","PARAM":"Mean NPI-X 9-Domain Total Score (Weeks 4-24)","PARAMN":2,"AVISIT":"Weeks 4-24 Mean","AVISITN":99,"ADT":null,"ADY":null,"AVAL":0.0909,"BASE":1,"CHG":-0.9091,"ABLFL":null,"TRT01A":"Xanomeline High Dose","TRT01AN":3,"SAFFL":"Y","ITTFL":"Y","EFFFL":"Y","COMPFL":"Y","SITEID":"701","AGE":56,"AGEGR1":"<65","SEX":"M","RACE":"WHITE","ARMCD":"Xan_Hi","TRTSDT":"2014-01-11","TRTEDT":"2014-07-10"},{"STUDYID":"CDISCPILOT01","USUBJID":"01-701-1275","DOMAIN":"ADQS","PARAMCD":"NPTOT9","PARAM":"NPI-X 9-Domain Total Score","PARAMN":1,"AVISIT":"Baseline","AVISITN":0,"ADT":"2014-02-07","ADY":1,"AVAL":3,"BASE":3,"CHG":null,"ABLFL":"Y","TRT01A":"Xanomeline High Dose","TRT01AN":3,"SAFFL":"Y","ITTFL":"Y","EFFFL":"Y","COMPFL":"N","SITEID":"701","AGE":61,"AGEGR1":"<65","SEX":"M","RACE":"AMERICAN INDIAN OR ALASKA NATIVE","ARMCD":"Xan_Hi","TRTSDT":"2014-02-07","TRTEDT":"2014-05-31"},{"STUDYID":"CDISCPILOT01","USUBJID":"01-701-1275","DOMAIN":"ADQS","PARAMCD":"NPTOT9","PARAM":"NPI-X 9-Domain Total Score","PARAMN":1,"AVISIT":"Week 2","AVISITN":2,"ADT":"2014-02-22","ADY":16,"AVAL":1,"BASE":3,"CHG":-2,"ABLFL":null,"TRT01A":"Xanomeline High Dose","TRT01AN":3,"SAFFL":"Y","ITTFL":"Y","EFFFL":"Y","COMPFL":"N","SITEID":"701","AGE":61,"AGEGR1":"<65","SEX":"M","RACE":"AMERICAN INDIAN OR ALASKA NATIVE","ARMCD":"Xan_Hi","TRTSDT":"2014-02-07","TRTEDT":"2014-05-31"},{"STUDYID":"CDISCPILOT01","USUBJID":"01-701-1275","DOMAIN":"ADQS","PARAMCD":"NPTOT9","PARAM":"NPI-X 9-Domain Total Score","PARAMN":1,"AVISIT":"Week 4","AVISITN":4,"ADT":"2014-03-07","ADY":29,"AVAL":3,"BASE":3,"CHG":0,"ABLFL":null,"TRT01A":"Xanomeline High Dose","TRT01AN":3,"SAFFL":"Y","ITTFL":"Y","EFFFL":"Y","COMPFL":"N","SITEID":"701","AGE":61,"AGEGR1":"<65","SEX":"M","RACE":"AMERICAN INDIAN OR ALASKA NATIVE","ARMCD":"Xan_Hi","TRTSDT":"2014-02-07","TRTEDT":"2014-05-31"},{"STUDYID":"CDISCPILOT01","USUBJID":"01-701-1275","DOMAIN":"ADQS","PARAMCD":"NPTOT9","PARAM":"NPI-X 9-Domain Total Score","PARAMN":1,"AVISIT":"Week 6","AVISITN":6,"ADT":"2014-03-22","ADY":44,"AVAL":3,"BASE":3,"CHG":0,"ABLFL":null,"TRT01A":"Xanomeline High Dose","TRT01AN":3,"SAFFL":"Y","ITTFL":"Y","EFFFL":"Y","COMPFL":"N","SITEID":"701","AGE":61,"AGEGR1":"<65","SEX":"M","RACE":"AMERICAN INDIAN OR ALASKA NATIVE","ARMCD":"Xan_Hi","TRTSDT":"2014-02-07","TRTEDT":"2014-05-31"},{"STUDYID":"CDISCPILOT01","USUBJID":"01-701-1275","DOMAIN":"ADQS","PARAMCD":"NPTOT9","PARAM":"NPI-X 9-Domain Total Score","PARAMN":1,"AVISIT":"Week 8","AVISITN":8,"ADT":"2014-04-05","ADY":58,"AVAL":1,"BASE":3,"CHG":-2,"ABLFL":null,"TRT01A":"Xanomeline High Dose","TRT01AN":3,"SAFFL":"Y","ITTFL":"Y","EFFFL":"Y","COMPFL":"N","SITEID":"701","AGE":61,"AGEGR1":"<65","SEX":"M","RACE":"AMERICAN INDIAN OR ALASKA NATIVE","ARMCD":"Xan_Hi","TRTSDT":"2014-02-07","TRTEDT":"2014-05-31"},{"STUDYID":"CDISCPILOT01","USUBJID":"01-701-1275","DOMAIN":"ADQS","PARAMCD":"NPTOT9","PARAM":"NPI-X 9-Domain Total Score","PARAMN":1,"AVISIT":"Week 10","AVISITN":10,"ADT":"2014-04-19","ADY":72,"AVAL":1,"BASE":3,"CHG":-2,"ABLFL":null,"TRT01A":"Xanomeline High Dose","TRT01AN":3,"SAFFL":"Y","ITTFL":"Y","EFFFL":"Y","COMPFL":"N","SITEID":"701","AGE":61,"AGEGR1":"<65","SEX":"M","RACE":"AMERICAN INDIAN OR ALASKA NATIVE","ARMCD":"Xan_Hi","TRTSDT":"2014-02-07","TRTEDT":"2014-05-31"},{"STUDYID":"CDISCPILOT01","USUBJID":"01-701-1275","DOMAIN":"ADQS","PARAMCD":"NPTOT9","PARAM":"NPI-X 9-Domain Total Score","PARAMN":1,"AVISIT":"Week 12","AVISITN":12,"ADT":"2014-05-03","ADY":86,"AVAL":1,"BASE":3,"CHG":-2,"ABLFL":null,"TRT01A":"Xanomeline High Dose","TRT01AN":3,"SAFFL":"Y","ITTFL":"Y","EFFFL":"Y","COMPFL":"N","SITEID":"701","AGE":61,"AGEGR1":"<65","SEX":"M","RACE":"AMERICAN INDIAN OR ALASKA NATIVE","ARMCD":"Xan_Hi","TRTSDT":"2014-02-07","TRTEDT":"2014-05-31"},{"STUDYID":"CDISCPILOT01","USUBJID":"01-701-1275","DOMAIN":"ADQS","PARAMCD":"NPTOT9","PARAM":"NPI-X 9-Domain Total Score","PARAMN":1,"AVISIT":"Week 14","AVISITN":14,"ADT":"2014-05-17","ADY":100,"AVAL":2,"BASE":3,"CHG":-1,"ABLFL":null,"TRT01A":"Xanomeline High Dose","TRT01AN":3,"SAFFL":"Y","ITTFL":"Y","EFFFL":"Y","COMPFL":"N","SITEID":"701","AGE":61,"AGEGR1":"<65","SEX":"M","RACE":"AMERICAN INDIAN OR ALASKA NATIVE","ARMCD":"Xan_Hi","TRTSDT":"2014-02-07","TRTEDT":"2014-05-31"},{"STUDYID":"CDISCPILOT01","USUBJID":"01-701-1275","DOMAIN":"ADQS","PARAMCD":"NPTOT9","PARAM":"NPI-X 9-Domain Total Score","PARAMN":1,"AVISIT":"Week 16","AVISITN":16,"ADT":"2014-06-14","ADY":128,"AVAL":2,"BASE":3,"CHG":-1,"ABLFL":null,"TRT01A":"Xanomeline High Dose","TRT01AN":3,"SAFFL":"Y","ITTFL":"Y","EFFFL":"Y","COMPFL":"N","SITEID":"701","AGE":61,"AGEGR1":"<65","SEX":"M","RACE":"AMERICAN INDIAN OR ALASKA NATIVE","ARMCD":"Xan_Hi","TRTSDT":"2014-02-07","TRTEDT":"2014-05-31"},{"STUDYID":"CDISCPILOT01","USUBJID":"01-701-1275","DOMAIN":"ADQS","PARAMCD":"NPTMN24","PARAM":"Mean NPI-X 9-Domain Total Score (Weeks 4-24)","PARAMN":2,"AVISIT":"Weeks 4-24 Mean","AVISITN":99,"ADT":null,"ADY":null,"AVAL":1.8571,"BASE":3,"CHG":-1.1429,"ABLFL":null,"TRT01A":"Xanomeline High Dose","TRT01AN":3,"SAFFL":"Y","ITTFL":"Y","EFFFL":"Y","COMPFL":"N","SITEID":"701","AGE":61,"AGEGR1":"<65","SEX":"M","RACE":"AMERICAN INDIAN OR ALASKA NATIVE","ARMCD":"Xan_Hi","TRTSDT":"2014-02-07","TRTEDT":"2014-05-31"},{"STUDYID":"CDISCPILOT01","USUBJID":"01-701-1287","DOMAIN":"ADQS","PARAMCD":"NPTOT9","PARAM":"NPI-X 9-Domain Total Score","PARAMN":1,"AVISIT":"Baseline","AVISITN":0,"ADT":"2014-01-25","ADY":1,"AVAL":1,"BASE":1,"CHG":null,"ABLFL":"Y","TRT01A":"Xanomeline High Dose","TRT01AN":3,"SAFFL":"Y","ITTFL":"Y","EFFFL":"Y","COMPFL":"Y","SITEID":"701","AGE":56,"AGEGR1":"<65","SEX":"F","RACE":"WHITE","ARMCD":"Xan_Hi","TRTSDT":"2014-01-25","TRTEDT":"2014-07-26"},{"STUDYID":"CDISCPILOT01","USUBJID":"01-701-1287","DOMAIN":"ADQS","PARAMCD":"NPTOT9","PARAM":"NPI-X 9-Domain Total Score","PARAMN":1,"AVISIT":"Week 2","AVISITN":2,"ADT":"2014-02-11","ADY":18,"AVAL":1,"BASE":1,"CHG":0,"ABLFL":null,"TRT01A":"Xanomeline High Dose","TRT01AN":3,"SAFFL":"Y","ITTFL":"Y","EFFFL":"Y","COMPFL":"Y","SITEID":"701","AGE":56,"AGEGR1":"<65","SEX":"F","RACE":"WHITE","ARMCD":"Xan_Hi","TRTSDT":"2014-01-25","TRTEDT":"2014-07-26"},{"STUDYID":"CDISCPILOT01","USUBJID":"01-701-1287","DOMAIN":"ADQS","PARAMCD":"NPTOT9","PARAM":"NPI-X 9-Domain Total Score","PARAMN":1,"AVISIT":"Week 4","AVISITN":4,"ADT":"2014-02-20","ADY":27,"AVAL":0,"BASE":1,"CHG":-1,"ABLFL":null,"TRT01A":"Xanomeline High Dose","TRT01AN":3,"SAFFL":"Y","ITTFL":"Y","EFFFL":"Y","COMPFL":"Y","SITEID":"701","AGE":56,"AGEGR1":"<65","SEX":"F","RACE":"WHITE","ARMCD":"Xan_Hi","TRTSDT":"2014-01-25","TRTEDT":"2014-07-26"},{"STUDYID":"CDISCPILOT01","USUBJID":"01-701-1287","DOMAIN":"ADQS","PARAMCD":"NPTOT9","PARAM":"NPI-X 9-Domain Total Score","PARAMN":1,"AVISIT":"Week 6","AVISITN":6,"ADT":"2014-03-06","ADY":41,"AVAL":0,"BASE":1,"CHG":-1,"ABLFL":null,"TRT01A":"Xanomeline High Dose","TRT01AN":3,"SAFFL":"Y","ITTFL":"Y","EFFFL":"Y","COMPFL":"Y","SITEID":"701","AGE":56,"AGEGR1":"<65","SEX":"F","RACE":"WHITE","ARMCD":"Xan_Hi","TRTSDT":"2014-01-25","TRTEDT":"2014-07-26"},{"STUDYID":"CDISCPILOT01","USUBJID":"01-701-1287","DOMAIN":"ADQS","PARAMCD":"NPTOT9","PARAM":"NPI-X 9-Domain Total Score","PARAMN":1,"AVISIT":"Week 8","AVISITN":8,"ADT":"2014-03-21","ADY":56,"AVAL":0,"BASE":1,"CHG":-1,"ABLFL":null,"TRT01A":"Xanomeline High Dose","TRT01AN":3,"SAFFL":"Y","ITTFL":"Y","EFFFL":"Y","COMPFL":"Y","SITEID":"701","AGE":56,"AGEGR1":"<65","SEX":"F","RACE":"WHITE","ARMCD":"Xan_Hi","TRTSDT":"2014-01-25","TRTEDT":"2014-07-26"},{"STUDYID":"CDISCPILOT01","USUBJID":"01-701-1287","DOMAIN":"ADQS","PARAMCD":"NPTOT9","PARAM":"NPI-X 9-Domain Total Score","PARAMN":1,"AVISIT":"Week 10","AVISITN":10,"ADT":"2014-04-03","ADY":69,"AVAL":0,"BASE":1,"CHG":-1,"ABLFL":null,"TRT01A":"Xanomeline High Dose","TRT01AN":3,"SAFFL":"Y","ITTFL":"Y","EFFFL":"Y","COMPFL":"Y","SITEID":"701","AGE":56,"AGEGR1":"<65","SEX":"F","RACE":"WHITE","ARMCD":"Xan_Hi","TRTSDT":"2014-01-25","TRTEDT":"2014-07-26"},{"STUDYID":"CDISCPILOT01","USUBJID":"01-701-1287","DOMAIN":"ADQS","PARAMCD":"NPTOT9","PARAM":"NPI-X 9-Domain Total Score","PARAMN":1,"AVISIT":"Week 12","AVISITN":12,"ADT":"2014-04-17","ADY":83,"AVAL":0,"BASE":1,"CHG":-1,"ABLFL":null,"TRT01A":"Xanomeline High Dose","TRT01AN":3,"SAFFL":"Y","ITTFL":"Y","EFFFL":"Y","COMPFL":"Y","SITEID":"701","AGE":56,"AGEGR1":"<65","SEX":"F","RACE":"WHITE","ARMCD":"Xan_Hi","TRTSDT":"2014-01-25","TRTEDT":"2014-07-26"},{"STUDYID":"CDISCPILOT01","USUBJID":"01-701-1287","DOMAIN":"ADQS","PARAMCD":"NPTOT9","PARAM":"NPI-X 9-Domain Total Score","PARAMN":1,"AVISIT":"Week 14","AVISITN":14,"ADT":"2014-05-01","ADY":97,"AVAL":0,"BASE":1,"CHG":-1,"ABLFL":null,"TRT01A":"Xanomeline High Dose","TRT01AN":3,"SAFFL":"Y","ITTFL":"Y","EFFFL":"Y","COMPFL":"Y","SITEID":"701","AGE":56,"AGEGR1":"<65","SEX":"F","RACE":"WHITE","ARMCD":"Xan_Hi","TRTSDT":"2014-01-25","TRTEDT":"2014-07-26"},{"STUDYID":"CDISCPILOT01","USUBJID":"01-701-1287","DOMAIN":"ADQS","PARAMCD":"NPTOT9","PARAM":"NPI-X 9-Domain Total Score","PARAMN":1,"AVISIT":"Week 16","AVISITN":16,"ADT":"2014-05-15","ADY":111,"AVAL":0,"BASE":1,"CHG":-1,"ABLFL":null,"TRT01A":"Xanomeline High Dose","TRT01AN":3,"SAFFL":"Y","ITTFL":"Y","EFFFL":"Y","COMPFL":"Y","SITEID":"701","AGE":56,"AGEGR1":"<65","SEX":"F","RACE":"WHITE","ARMCD":"Xan_Hi","TRTSDT":"2014-01-25","TRTEDT":"2014-07-26"},{"STUDYID":"CDISCPILOT01","USUBJID":"01-701-1287","DOMAIN":"ADQS","PARAMCD":"NPTOT9","PARAM":"NPI-X 9-Domain Total Score","PARAMN":1,"AVISIT":"Week 18","AVISITN":18,"ADT":"2014-05-29","ADY":125,"AVAL":0,"BASE":1,"CHG":-1,"ABLFL":null,"TRT01A":"Xanomeline High Dose","TRT01AN":3,"SAFFL":"Y","ITTFL":"Y","EFFFL":"Y","COMPFL":"Y","SITEID":"701","AGE":56,"AGEGR1":"<65","SEX":"F","RACE":"WHITE","ARMCD":"Xan_Hi","TRTSDT":"2014-01-25","TRTEDT":"2014-07-26"},{"STUDYID":"CDISCPILOT01","USUBJID":"01-701-1287","DOMAIN":"ADQS","PARAMCD":"NPTOT9","PARAM":"NPI-X 9-Domain Total Score","PARAMN":1,"AVISIT":"Week 20","AVISITN":20,"ADT":"2014-06-12","ADY":139,"AVAL":0,"BASE":1,"CHG":-1,"ABLFL":null,"TRT01A":"Xanomeline High Dose","TRT01AN":3,"SAFFL":"Y","ITTFL":"Y","EFFFL":"Y","COMPFL":"Y","SITEID":"701","AGE":56,"AGEGR1":"<65","SEX":"F","RACE":"WHITE","ARMCD":"Xan_Hi","TRTSDT":"2014-01-25","TRTEDT":"2014-07-26"},{"STUDYID":"CDISCPILOT01","USUBJID":"01-701-1287","DOMAIN":"ADQS","PARAMCD":"NPTOT9","PARAM":"NPI-X 9-Domain Total Score","PARAMN":1,"AVISIT":"Week 22","AVISITN":22,"ADT":"2014-06-26","ADY":153,"AVAL":0,"BASE":1,"CHG":-1,"ABLFL":null,"TRT01A":"Xanomeline High Dose","TRT01AN":3,"SAFFL":"Y","ITTFL":"Y","EFFFL":"Y","COMPFL":"Y","SITEID":"701","AGE":56,"AGEGR1":"<65","SEX":"F","RACE":"WHITE","ARMCD":"Xan_Hi","TRTSDT":"2014-01-25","TRTEDT":"2014-07-26"},{"STUDYID":"CDISCPILOT01","USUBJID":"01-701-1287","DOMAIN":"ADQS","PARAMCD":"NPTOT9","PARAM":"NPI-X 9-Domain Total Score","PARAMN":1,"AVISIT":"Week 24","AVISITN":24,"ADT":"2014-07-12","ADY":169,"AVAL":0,"BASE":1,"CHG":-1,"ABLFL":null,"TRT01A":"Xanomeline High Dose","TRT01AN":3,"SAFFL":"Y","ITTFL":"Y","EFFFL":"Y","COMPFL":"Y","SITEID":"701","AGE":56,"AGEGR1":"<65","SEX":"F","RACE":"WHITE","ARMCD":"Xan_Hi","TRTSDT":"2014-01-25","TRTEDT":"2014-07-26"},{"STUDYID":"CDISCPILOT01","USUBJID":"01-701-1287","DOMAIN":"ADQS","PARAMCD":"NPTMN24","PARAM":"Mean NPI-X 9-Domain Total Score (Weeks 4-24)","PARAMN":2,"AVISIT":"Weeks 4-24 Mean","AVISITN":99,"ADT":null,"ADY":null,"AVAL":0,"BASE":1,"CHG":-1,"ABLFL":null,"TRT01A":"Xanomeline High Dose","TRT01AN":3,"SAFFL":"Y","ITTFL":"Y","EFFFL":"Y","COMPFL":"Y","SITEID":"701","AGE":56,"AGEGR1":"<65","SEX":"F","RACE":"WHITE","ARMCD":"Xan_Hi","TRTSDT":"2014-01-25","TRTEDT":"2014-07-26"},{"STUDYID":"CDISCPILOT01","USUBJID":"01-701-1294","DOMAIN":"ADQS","PARAMCD":"NPTOT9","PARAM":"NPI-X 9-Domain Total Score","PARAMN":1,"AVISIT":"Baseline","AVISITN":0,"ADT":"2013-03-24","ADY":1,"AVAL":1,"BASE":1,"CHG":null,"ABLFL":"Y","TRT01A":"Xanomeline Low Dose","TRT01AN":2,"SAFFL":"Y","ITTFL":"Y","EFFFL":"Y","COMPFL":"N","SITEID":"701","AGE":67,"AGEGR1":"65-80","SEX":"M","RACE":"WHITE","ARMCD":"Xan_Lo","TRTSDT":"2013-03-24","TRTEDT":"2013-06-14"},{"STUDYID":"CDISCPILOT01","USUBJID":"01-701-1294","DOMAIN":"ADQS","PARAMCD":"NPTOT9","PARAM":"NPI-X 9-Domain Total Score","PARAMN":1,"AVISIT":"Week 2","AVISITN":2,"ADT":"2013-04-10","ADY":18,"AVAL":1,"BASE":1,"CHG":0,"ABLFL":null,"TRT01A":"Xanomeline Low Dose","TRT01AN":2,"SAFFL":"Y","ITTFL":"Y","EFFFL":"Y","COMPFL":"N","SITEID":"701","AGE":67,"AGEGR1":"65-80","SEX":"M","RACE":"WHITE","ARMCD":"Xan_Lo","TRTSDT":"2013-03-24","TRTEDT":"2013-06-14"},{"STUDYID":"CDISCPILOT01","USUBJID":"01-701-1294","DOMAIN":"ADQS","PARAMCD":"NPTOT9","PARAM":"NPI-X 9-Domain Total Score","PARAMN":1,"AVISIT":"Week 4","AVISITN":4,"ADT":"2013-04-24","ADY":32,"AVAL":0,"BASE":1,"CHG":-1,"ABLFL":null,"TRT01A":"Xanomeline Low Dose","TRT01AN":2,"SAFFL":"Y","ITTFL":"Y","EFFFL":"Y","COMPFL":"N","SITEID":"701","AGE":67,"AGEGR1":"65-80","SEX":"M","RACE":"WHITE","ARMCD":"Xan_Lo","TRTSDT":"2013-03-24","TRTEDT":"2013-06-14"},{"STUDYID":"CDISCPILOT01","USUBJID":"01-701-1294","DOMAIN":"ADQS","PARAMCD":"NPTOT9","PARAM":"NPI-X 9-Domain Total Score","PARAMN":1,"AVISIT":"Week 6","AVISITN":6,"ADT":"2013-05-08","ADY":46,"AVAL":3,"BASE":1,"CHG":2,"ABLFL":null,"TRT01A":"Xanomeline Low Dose","TRT01AN":2,"SAFFL":"Y","ITTFL":"Y","EFFFL":"Y","COMPFL":"N","SITEID":"701","AGE":67,"AGEGR1":"65-80","SEX":"M","RACE":"WHITE","ARMCD":"Xan_Lo","TRTSDT":"2013-03-24","TRTEDT":"2013-06-14"},{"STUDYID":"CDISCPILOT01","USUBJID":"01-701-1294","DOMAIN":"ADQS","PARAMCD":"NPTOT9","PARAM":"NPI-X 9-Domain Total Score","PARAMN":1,"AVISIT":"Week 8","AVISITN":8,"ADT":"2013-05-22","ADY":60,"AVAL":0,"BASE":1,"CHG":-1,"ABLFL":null,"TRT01A":"Xanomeline Low Dose","TRT01AN":2,"SAFFL":"Y","ITTFL":"Y","EFFFL":"Y","COMPFL":"N","SITEID":"701","AGE":67,"AGEGR1":"65-80","SEX":"M","RACE":"WHITE","ARMCD":"Xan_Lo","TRTSDT":"2013-03-24","TRTEDT":"2013-06-14"},{"STUDYID":"CDISCPILOT01","USUBJID":"01-701-1294","DOMAIN":"ADQS","PARAMCD":"NPTOT9","PARAM":"NPI-X 9-Domain Total Score","PARAMN":1,"AVISIT":"Week 10","AVISITN":10,"ADT":"2013-06-05","ADY":74,"AVAL":0,"BASE":1,"CHG":-1,"ABLFL":null,"TRT01A":"Xanomeline Low Dose","TRT01AN":2,"SAFFL":"Y","ITTFL":"Y","EFFFL":"Y","COMPFL":"N","SITEID":"701","AGE":67,"AGEGR1":"65-80","SEX":"M","RACE":"WHITE","ARMCD":"Xan_Lo","TRTSDT":"2013-03-24","TRTEDT":"2013-06-14"},{"STUDYID":"CDISCPILOT01","USUBJID":"01-701-1294","DOMAIN":"ADQS","PARAMCD":"NPTOT9","PARAM":"NPI-X 9-Domain Total Score","PARAMN":1,"AVISIT":"Week 12","AVISITN":12,"ADT":"2013-06-14","ADY":83,"AVAL":1,"BASE":1,"CHG":0,"ABLFL":null,"TRT01A":"Xanomeline Low Dose","TRT01AN":2,"SAFFL":"Y","ITTFL":"Y","EFFFL":"Y","COMPFL":"N","SITEID":"701","AGE":67,"AGEGR1":"65-80","SEX":"M","RACE":"WHITE","ARMCD":"Xan_Lo","TRTSDT":"2013-03-24","TRTEDT":"2013-06-14"},{"STUDYID":"CDISCPILOT01","USUBJID":"01-701-1294","DOMAIN":"ADQS","PARAMCD":"NPTMN24","PARAM":"Mean NPI-X 9-Domain Total Score (Weeks 4-24)","PARAMN":2,"AVISIT":"Weeks 4-24 Mean","AVISITN":99,"ADT":null,"ADY":null,"AVAL":0.8,"BASE":1,"CHG":-0.2,"ABLFL":null,"TRT01A":"Xanomeline Low Dose","TRT01AN":2,"SAFFL":"Y","ITTFL":"Y","EFFFL":"Y","COMPFL":"N","SITEID":"701","AGE":67,"AGEGR1":"65-80","SEX":"M","RACE":"WHITE","ARMCD":"Xan_Lo","TRTSDT":"2013-03-24","TRTEDT":"2013-06-14"},{"STUDYID":"CDISCPILOT01","USUBJID":"01-701-1302","DOMAIN":"ADQS","PARAMCD":"NPTOT9","PARAM":"NPI-X 9-Domain Total Score","PARAMN":1,"AVISIT":"Baseline","AVISITN":0,"ADT":"2013-08-29","ADY":1,"AVAL":0,"BASE":0,"CHG":null,"ABLFL":"Y","TRT01A":"Xanomeline High Dose","TRT01AN":3,"SAFFL":"Y","ITTFL":"Y","EFFFL":"Y","COMPFL":"N","SITEID":"701","AGE":61,"AGEGR1":"<65","SEX":"M","RACE":"WHITE","ARMCD":"Xan_Hi","TRTSDT":"2013-08-29","TRTEDT":"2013-11-05"},{"STUDYID":"CDISCPILOT01","USUBJID":"01-701-1302","DOMAIN":"ADQS","PARAMCD":"NPTOT9","PARAM":"NPI-X 9-Domain Total Score","PARAMN":1,"AVISIT":"Week 2","AVISITN":2,"ADT":"2013-09-15","ADY":18,"AVAL":0,"BASE":0,"CHG":0,"ABLFL":null,"TRT01A":"Xanomeline High Dose","TRT01AN":3,"SAFFL":"Y","ITTFL":"Y","EFFFL":"Y","COMPFL":"N","SITEID":"701","AGE":61,"AGEGR1":"<65","SEX":"M","RACE":"WHITE","ARMCD":"Xan_Hi","TRTSDT":"2013-08-29","TRTEDT":"2013-11-05"},{"STUDYID":"CDISCPILOT01","USUBJID":"01-701-1302","DOMAIN":"ADQS","PARAMCD":"NPTOT9","PARAM":"NPI-X 9-Domain Total Score","PARAMN":1,"AVISIT":"Week 4","AVISITN":4,"ADT":"2013-09-24","ADY":27,"AVAL":0,"BASE":0,"CHG":0,"ABLFL":null,"TRT01A":"Xanomeline High Dose","TRT01AN":3,"SAFFL":"Y","ITTFL":"Y","EFFFL":"Y","COMPFL":"N","SITEID":"701","AGE":61,"AGEGR1":"<65","SEX":"M","RACE":"WHITE","ARMCD":"Xan_Hi","TRTSDT":"2013-08-29","TRTEDT":"2013-11-05"},{"STUDYID":"CDISCPILOT01","USUBJID":"01-701-1302","DOMAIN":"ADQS","PARAMCD":"NPTOT9","PARAM":"NPI-X 9-Domain Total Score","PARAMN":1,"AVISIT":"Week 6","AVISITN":6,"ADT":"2013-10-08","ADY":41,"AVAL":0,"BASE":0,"CHG":0,"ABLFL":null,"TRT01A":"Xanomeline High Dose","TRT01AN":3,"SAFFL":"Y","ITTFL":"Y","EFFFL":"Y","COMPFL":"N","SITEID":"701","AGE":61,"AGEGR1":"<65","SEX":"M","RACE":"WHITE","ARMCD":"Xan_Hi","TRTSDT":"2013-08-29","TRTEDT":"2013-11-05"},{"STUDYID":"CDISCPILOT01","USUBJID":"01-701-1302","DOMAIN":"ADQS","PARAMCD":"NPTOT9","PARAM":"NPI-X 9-Domain Total Score","PARAMN":1,"AVISIT":"Week 8","AVISITN":8,"ADT":"2013-10-22","ADY":55,"AVAL":0,"BASE":0,"CHG":0,"ABLFL":null,"TRT01A":"Xanomeline High Dose","TRT01AN":3,"SAFFL":"Y","ITTFL":"Y","EFFFL":"Y","COMPFL":"N","SITEID":"701","AGE":61,"AGEGR1":"<65","SEX":"M","RACE":"WHITE","ARMCD":"Xan_Hi","TRTSDT":"2013-08-29","TRTEDT":"2013-11-05"},{"STUDYID":"CDISCPILOT01","USUBJID":"01-701-1302","DOMAIN":"ADQS","PARAMCD":"NPTOT9","PARAM":"NPI-X 9-Domain Total Score","PARAMN":1,"AVISIT":"Week 12","AVISITN":12,"ADT":"2013-11-05","ADY":69,"AVAL":0,"BASE":0,"CHG":0,"ABLFL":null,"TRT01A":"Xanomeline High Dose","TRT01AN":3,"SAFFL":"Y","ITTFL":"Y","EFFFL":"Y","COMPFL":"N","SITEID":"701","AGE":61,"AGEGR1":"<65","SEX":"M","RACE":"WHITE","ARMCD":"Xan_Hi","TRTSDT":"2013-08-29","TRTEDT":"2013-11-05"},{"STUDYID":"CDISCPILOT01","USUBJID":"01-701-1302","DOMAIN":"ADQS","PARAMCD":"NPTMN24","PARAM":"Mean NPI-X 9-Domain Total Score (Weeks 4-24)","PARAMN":2,"AVISIT":"Weeks 4-24 Mean","AVISITN":99,"ADT":null,"ADY":null,"AVAL":0,"BASE":0,"CHG":0,"ABLFL":null,"TRT01A":"Xanomeline High Dose","TRT01AN":3,"SAFFL":"Y","ITTFL":"Y","EFFFL":"Y","COMPFL":"N","SITEID":"701","AGE":61,"AGEGR1":"<65","SEX":"M","RACE":"WHITE","ARMCD":"Xan_Hi","TRTSDT":"2013-08-29","TRTEDT":"2013-11-05"},{"STUDYID":"CDISCPILOT01","USUBJID":"01-701-1317","DOMAIN":"ADQS","PARAMCD":"NPTOT9","PARAM":"NPI-X 9-Domain Total Score","PARAMN":1,"AVISIT":"Baseline","AVISITN":0,"ADT":"2014-05-22","ADY":1,"AVAL":3,"BASE":3,"CHG":null,"ABLFL":"Y","TRT01A":"Xanomeline Low Dose","TRT01AN":2,"SAFFL":"Y","ITTFL":"Y","EFFFL":"Y","COMPFL":"Y","SITEID":"701","AGE":68,"AGEGR1":"65-80","SEX":"M","RACE":"WHITE","ARMCD":"Xan_Lo","TRTSDT":"2014-05-22","TRTEDT":"2014-11-20"},{"STUDYID":"CDISCPILOT01","USUBJID":"01-701-1317","DOMAIN":"ADQS","PARAMCD":"NPTOT9","PARAM":"NPI-X 9-Domain Total Score","PARAMN":1,"AVISIT":"Week 2","AVISITN":2,"ADT":"2014-06-05","ADY":15,"AVAL":4,"BASE":3,"CHG":1,"ABLFL":null,"TRT01A":"Xanomeline Low Dose","TRT01AN":2,"SAFFL":"Y","ITTFL":"Y","EFFFL":"Y","COMPFL":"Y","SITEID":"701","AGE":68,"AGEGR1":"65-80","SEX":"M","RACE":"WHITE","ARMCD":"Xan_Lo","TRTSDT":"2014-05-22","TRTEDT":"2014-11-20"},{"STUDYID":"CDISCPILOT01","USUBJID":"01-701-1317","DOMAIN":"ADQS","PARAMCD":"NPTOT9","PARAM":"NPI-X 9-Domain Total Score","PARAMN":1,"AVISIT":"Week 4","AVISITN":4,"ADT":"2014-06-19","ADY":29,"AVAL":4,"BASE":3,"CHG":1,"ABLFL":null,"TRT01A":"Xanomeline Low Dose","TRT01AN":2,"SAFFL":"Y","ITTFL":"Y","EFFFL":"Y","COMPFL":"Y","SITEID":"701","AGE":68,"AGEGR1":"65-80","SEX":"M","RACE":"WHITE","ARMCD":"Xan_Lo","TRTSDT":"2014-05-22","TRTEDT":"2014-11-20"},{"STUDYID":"CDISCPILOT01","USUBJID":"01-701-1317","DOMAIN":"ADQS","PARAMCD":"NPTOT9","PARAM":"NPI-X 9-Domain Total Score","PARAMN":1,"AVISIT":"Week 6","AVISITN":6,"ADT":"2014-07-03","ADY":43,"AVAL":3,"BASE":3,"CHG":0,"ABLFL":null,"TRT01A":"Xanomeline Low Dose","TRT01AN":2,"SAFFL":"Y","ITTFL":"Y","EFFFL":"Y","COMPFL":"Y","SITEID":"701","AGE":68,"AGEGR1":"65-80","SEX":"M","RACE":"WHITE","ARMCD":"Xan_Lo","TRTSDT":"2014-05-22","TRTEDT":"2014-11-20"},{"STUDYID":"CDISCPILOT01","USUBJID":"01-701-1317","DOMAIN":"ADQS","PARAMCD":"NPTOT9","PARAM":"NPI-X 9-Domain Total Score","PARAMN":1,"AVISIT":"Week 8","AVISITN":8,"ADT":"2014-07-22","ADY":62,"AVAL":4,"BASE":3,"CHG":1,"ABLFL":null,"TRT01A":"Xanomeline Low Dose","TRT01AN":2,"SAFFL":"Y","ITTFL":"Y","EFFFL":"Y","COMPFL":"Y","SITEID":"701","AGE":68,"AGEGR1":"65-80","SEX":"M","RACE":"WHITE","ARMCD":"Xan_Lo","TRTSDT":"2014-05-22","TRTEDT":"2014-11-20"},{"STUDYID":"CDISCPILOT01","USUBJID":"01-701-1317","DOMAIN":"ADQS","PARAMCD":"NPTOT9","PARAM":"NPI-X 9-Domain Total Score","PARAMN":1,"AVISIT":"Week 10","AVISITN":10,"ADT":"2014-07-30","ADY":70,"AVAL":3,"BASE":3,"CHG":0,"ABLFL":null,"TRT01A":"Xanomeline Low Dose","TRT01AN":2,"SAFFL":"Y","ITTFL":"Y","EFFFL":"Y","COMPFL":"Y","SITEID":"701","AGE":68,"AGEGR1":"65-80","SEX":"M","RACE":"WHITE","ARMCD":"Xan_Lo","TRTSDT":"2014-05-22","TRTEDT":"2014-11-20"},{"STUDYID":"CDISCPILOT01","USUBJID":"01-701-1317","DOMAIN":"ADQS","PARAMCD":"NPTOT9","PARAM":"NPI-X 9-Domain Total Score","PARAMN":1,"AVISIT":"Week 12","AVISITN":12,"ADT":"2014-08-15","ADY":86,"AVAL":4,"BASE":3,"CHG":1,"ABLFL":null,"TRT01A":"Xanomeline Low Dose","TRT01AN":2,"SAFFL":"Y","ITTFL":"Y","EFFFL":"Y","COMPFL":"Y","SITEID":"701","AGE":68,"AGEGR1":"65-80","SEX":"M","RACE":"WHITE","ARMCD":"Xan_Lo","TRTSDT":"2014-05-22","TRTEDT":"2014-11-20"},{"STUDYID":"CDISCPILOT01","USUBJID":"01-701-1317","DOMAIN":"ADQS","PARAMCD":"NPTOT9","PARAM":"NPI-X 9-Domain Total Score","PARAMN":1,"AVISIT":"Week 14","AVISITN":14,"ADT":"2014-08-28","ADY":99,"AVAL":2,"BASE":3,"CHG":-1,"ABLFL":null,"TRT01A":"Xanomeline Low Dose","TRT01AN":2,"SAFFL":"Y","ITTFL":"Y","EFFFL":"Y","COMPFL":"Y","SITEID":"701","AGE":68,"AGEGR1":"65-80","SEX":"M","RACE":"WHITE","ARMCD":"Xan_Lo","TRTSDT":"2014-05-22","TRTEDT":"2014-11-20"},{"STUDYID":"CDISCPILOT01","USUBJID":"01-701-1317","DOMAIN":"ADQS","PARAMCD":"NPTOT9","PARAM":"NPI-X 9-Domain Total Score","PARAMN":1,"AVISIT":"Week 16","AVISITN":16,"ADT":"2014-09-11","ADY":113,"AVAL":4,"BASE":3,"CHG":1,"ABLFL":null,"TRT01A":"Xanomeline Low Dose","TRT01AN":2,"SAFFL":"Y","ITTFL":"Y","EFFFL":"Y","COMPFL":"Y","SITEID":"701","AGE":68,"AGEGR1":"65-80","SEX":"M","RACE":"WHITE","ARMCD":"Xan_Lo","TRTSDT":"2014-05-22","TRTEDT":"2014-11-20"},{"STUDYID":"CDISCPILOT01","USUBJID":"01-701-1317","DOMAIN":"ADQS","PARAMCD":"NPTOT9","PARAM":"NPI-X 9-Domain Total Score","PARAMN":1,"AVISIT":"Week 18","AVISITN":18,"ADT":"2014-09-25","ADY":127,"AVAL":2,"BASE":3,"CHG":-1,"ABLFL":null,"TRT01A":"Xanomeline Low Dose","TRT01AN":2,"SAFFL":"Y","ITTFL":"Y","EFFFL":"Y","COMPFL":"Y","SITEID":"701","AGE":68,"AGEGR1":"65-80","SEX":"M","RACE":"WHITE","ARMCD":"Xan_Lo","TRTSDT":"2014-05-22","TRTEDT":"2014-11-20"},{"STUDYID":"CDISCPILOT01","USUBJID":"01-701-1317","DOMAIN":"ADQS","PARAMCD":"NPTOT9","PARAM":"NPI-X 9-Domain Total Score","PARAMN":1,"AVISIT":"Week 20","AVISITN":20,"ADT":"2014-10-09","ADY":141,"AVAL":2,"BASE":3,"CHG":-1,"ABLFL":null,"TRT01A":"Xanomeline Low Dose","TRT01AN":2,"SAFFL":"Y","ITTFL":"Y","EFFFL":"Y","COMPFL":"Y","SITEID":"701","AGE":68,"AGEGR1":"65-80","SEX":"M","RACE":"WHITE","ARMCD":"Xan_Lo","TRTSDT":"2014-05-22","TRTEDT":"2014-11-20"},{"STUDYID":"CDISCPILOT01","USUBJID":"01-701-1317","DOMAIN":"ADQS","PARAMCD":"NPTOT9","PARAM":"NPI-X 9-Domain Total Score","PARAMN":1,"AVISIT":"Week 22","AVISITN":22,"ADT":"2014-10-23","ADY":155,"AVAL":2,"BASE":3,"CHG":-1,"ABLFL":null,"TRT01A":"Xanomeline Low Dose","TRT01AN":2,"SAFFL":"Y","ITTFL":"Y","EFFFL":"Y","COMPFL":"Y","SITEID":"701","AGE":68,"AGEGR1":"65-80","SEX":"M","RACE":"WHITE","ARMCD":"Xan_Lo","TRTSDT":"2014-05-22","TRTEDT":"2014-11-20"},{"STUDYID":"CDISCPILOT01","USUBJID":"01-701-1317","DOMAIN":"ADQS","PARAMCD":"NPTOT9","PARAM":"NPI-X 9-Domain Total Score","PARAMN":1,"AVISIT":"Week 24","AVISITN":24,"ADT":"2014-11-06","ADY":169,"AVAL":5,"BASE":3,"CHG":2,"ABLFL":null,"TRT01A":"Xanomeline Low Dose","TRT01AN":2,"SAFFL":"Y","ITTFL":"Y","EFFFL":"Y","COMPFL":"Y","SITEID":"701","AGE":68,"AGEGR1":"65-80","SEX":"M","RACE":"WHITE","ARMCD":"Xan_Lo","TRTSDT":"2014-05-22","TRTEDT":"2014-11-20"},{"STUDYID":"CDISCPILOT01","USUBJID":"01-701-1317","DOMAIN":"ADQS","PARAMCD":"NPTMN24","PARAM":"Mean NPI-X 9-Domain Total Score (Weeks 4-24)","PARAMN":2,"AVISIT":"Weeks 4-24 Mean","AVISITN":99,"ADT":null,"ADY":null,"AVAL":3.1818,"BASE":3,"CHG":0.1818,"ABLFL":null,"TRT01A":"Xanomeline Low Dose","TRT01AN":2,"SAFFL":"Y","ITTFL":"Y","EFFFL":"Y","COMPFL":"Y","SITEID":"701","AGE":68,"AGEGR1":"65-80","SEX":"M","RACE":"WHITE","ARMCD":"Xan_Lo","TRTSDT":"2014-05-22","TRTEDT":"2014-11-20"},{"STUDYID":"CDISCPILOT01","USUBJID":"01-701-1324","DOMAIN":"ADQS","PARAMCD":"NPTOT9","PARAM":"NPI-X 9-Domain Total Score","PARAMN":1,"AVISIT":"Baseline","AVISITN":0,"ADT":"2012-10-02","ADY":1,"AVAL":1,"BASE":1,"CHG":null,"ABLFL":"Y","TRT01A":"Xanomeline Low Dose","TRT01AN":2,"SAFFL":"Y","ITTFL":"Y","EFFFL":"Y","COMPFL":"Y","SITEID":"701","AGE":79,"AGEGR1":"65-80","SEX":"M","RACE":"WHITE","ARMCD":"Xan_Lo","TRTSDT":"2012-10-02","TRTEDT":"2013-04-02"},{"STUDYID":"CDISCPILOT01","USUBJID":"01-701-1324","DOMAIN":"ADQS","PARAMCD":"NPTOT9","PARAM":"NPI-X 9-Domain Total Score","PARAMN":1,"AVISIT":"Week 2","AVISITN":2,"ADT":"2012-10-16","ADY":15,"AVAL":2,"BASE":1,"CHG":1,"ABLFL":null,"TRT01A":"Xanomeline Low Dose","TRT01AN":2,"SAFFL":"Y","ITTFL":"Y","EFFFL":"Y","COMPFL":"Y","SITEID":"701","AGE":79,"AGEGR1":"65-80","SEX":"M","RACE":"WHITE","ARMCD":"Xan_Lo","TRTSDT":"2012-10-02","TRTEDT":"2013-04-02"},{"STUDYID":"CDISCPILOT01","USUBJID":"01-701-1324","DOMAIN":"ADQS","PARAMCD":"NPTOT9","PARAM":"NPI-X 9-Domain Total Score","PARAMN":1,"AVISIT":"Week 4","AVISITN":4,"ADT":"2012-10-30","ADY":29,"AVAL":4,"BASE":1,"CHG":3,"ABLFL":null,"TRT01A":"Xanomeline Low Dose","TRT01AN":2,"SAFFL":"Y","ITTFL":"Y","EFFFL":"Y","COMPFL":"Y","SITEID":"701","AGE":79,"AGEGR1":"65-80","SEX":"M","RACE":"WHITE","ARMCD":"Xan_Lo","TRTSDT":"2012-10-02","TRTEDT":"2013-04-02"},{"STUDYID":"CDISCPILOT01","USUBJID":"01-701-1324","DOMAIN":"ADQS","PARAMCD":"NPTOT9","PARAM":"NPI-X 9-Domain Total Score","PARAMN":1,"AVISIT":"Week 6","AVISITN":6,"ADT":"2012-11-13","ADY":43,"AVAL":0,"BASE":1,"CHG":-1,"ABLFL":null,"TRT01A":"Xanomeline Low Dose","TRT01AN":2,"SAFFL":"Y","ITTFL":"Y","EFFFL":"Y","COMPFL":"Y","SITEID":"701","AGE":79,"AGEGR1":"65-80","SEX":"M","RACE":"WHITE","ARMCD":"Xan_Lo","TRTSDT":"2012-10-02","TRTEDT":"2013-04-02"},{"STUDYID":"CDISCPILOT01","USUBJID":"01-701-1324","DOMAIN":"ADQS","PARAMCD":"NPTOT9","PARAM":"NPI-X 9-Domain Total Score","PARAMN":1,"AVISIT":"Week 8","AVISITN":8,"ADT":"2012-11-25","ADY":55,"AVAL":1,"BASE":1,"CHG":0,"ABLFL":null,"TRT01A":"Xanomeline Low Dose","TRT01AN":2,"SAFFL":"Y","ITTFL":"Y","EFFFL":"Y","COMPFL":"Y","SITEID":"701","AGE":79,"AGEGR1":"65-80","SEX":"M","RACE":"WHITE","ARMCD":"Xan_Lo","TRTSDT":"2012-10-02","TRTEDT":"2013-04-02"},{"STUDYID":"CDISCPILOT01","USUBJID":"01-701-1324","DOMAIN":"ADQS","PARAMCD":"NPTOT9","PARAM":"NPI-X 9-Domain Total Score","PARAMN":1,"AVISIT":"Week 10","AVISITN":10,"ADT":"2012-12-11","ADY":71,"AVAL":4,"BASE":1,"CHG":3,"ABLFL":null,"TRT01A":"Xanomeline Low Dose","TRT01AN":2,"SAFFL":"Y","ITTFL":"Y","EFFFL":"Y","COMPFL":"Y","SITEID":"701","AGE":79,"AGEGR1":"65-80","SEX":"M","RACE":"WHITE","ARMCD":"Xan_Lo","TRTSDT":"2012-10-02","TRTEDT":"2013-04-02"},{"STUDYID":"CDISCPILOT01","USUBJID":"01-701-1324","DOMAIN":"ADQS","PARAMCD":"NPTOT9","PARAM":"NPI-X 9-Domain Total Score","PARAMN":1,"AVISIT":"Week 12","AVISITN":12,"ADT":"2012-12-25","ADY":85,"AVAL":2,"BASE":1,"CHG":1,"ABLFL":null,"TRT01A":"Xanomeline Low Dose","TRT01AN":2,"SAFFL":"Y","ITTFL":"Y","EFFFL":"Y","COMPFL":"Y","SITEID":"701","AGE":79,"AGEGR1":"65-80","SEX":"M","RACE":"WHITE","ARMCD":"Xan_Lo","TRTSDT":"2012-10-02","TRTEDT":"2013-04-02"},{"STUDYID":"CDISCPILOT01","USUBJID":"01-701-1324","DOMAIN":"ADQS","PARAMCD":"NPTOT9","PARAM":"NPI-X 9-Domain Total Score","PARAMN":1,"AVISIT":"Week 14","AVISITN":14,"ADT":"2013-01-08","ADY":99,"AVAL":2,"BASE":1,"CHG":1,"ABLFL":null,"TRT01A":"Xanomeline Low Dose","TRT01AN":2,"SAFFL":"Y","ITTFL":"Y","EFFFL":"Y","COMPFL":"Y","SITEID":"701","AGE":79,"AGEGR1":"65-80","SEX":"M","RACE":"WHITE","ARMCD":"Xan_Lo","TRTSDT":"2012-10-02","TRTEDT":"2013-04-02"},{"STUDYID":"CDISCPILOT01","USUBJID":"01-701-1324","DOMAIN":"ADQS","PARAMCD":"NPTOT9","PARAM":"NPI-X 9-Domain Total Score","PARAMN":1,"AVISIT":"Week 16","AVISITN":16,"ADT":"2013-01-22","ADY":113,"AVAL":1,"BASE":1,"CHG":0,"ABLFL":null,"TRT01A":"Xanomeline Low Dose","TRT01AN":2,"SAFFL":"Y","ITTFL":"Y","EFFFL":"Y","COMPFL":"Y","SITEID":"701","AGE":79,"AGEGR1":"65-80","SEX":"M","RACE":"WHITE","ARMCD":"Xan_Lo","TRTSDT":"2012-10-02","TRTEDT":"2013-04-02"},{"STUDYID":"CDISCPILOT01","USUBJID":"01-701-1324","DOMAIN":"ADQS","PARAMCD":"NPTOT9","PARAM":"NPI-X 9-Domain Total Score","PARAMN":1,"AVISIT":"Week 18","AVISITN":18,"ADT":"2013-02-05","ADY":127,"AVAL":2,"BASE":1,"CHG":1,"ABLFL":null,"TRT01A":"Xanomeline Low Dose","TRT01AN":2,"SAFFL":"Y","ITTFL":"Y","EFFFL":"Y","COMPFL":"Y","SITEID":"701","AGE":79,"AGEGR1":"65-80","SEX":"M","RACE":"WHITE","ARMCD":"Xan_Lo","TRTSDT":"2012-10-02","TRTEDT":"2013-04-02"},{"STUDYID":"CDISCPILOT01","USUBJID":"01-701-1324","DOMAIN":"ADQS","PARAMCD":"NPTOT9","PARAM":"NPI-X 9-Domain Total Score","PARAMN":1,"AVISIT":"Week 20","AVISITN":20,"ADT":"2013-02-19","ADY":141,"AVAL":3,"BASE":1,"CHG":2,"ABLFL":null,"TRT01A":"Xanomeline Low Dose","TRT01AN":2,"SAFFL":"Y","ITTFL":"Y","EFFFL":"Y","COMPFL":"Y","SITEID":"701","AGE":79,"AGEGR1":"65-80","SEX":"M","RACE":"WHITE","ARMCD":"Xan_Lo","TRTSDT":"2012-10-02","TRTEDT":"2013-04-02"},{"STUDYID":"CDISCPILOT01","USUBJID":"01-701-1324","DOMAIN":"ADQS","PARAMCD":"NPTOT9","PARAM":"NPI-X 9-Domain Total Score","PARAMN":1,"AVISIT":"Week 22","AVISITN":22,"ADT":"2013-03-05","ADY":155,"AVAL":4,"BASE":1,"CHG":3,"ABLFL":null,"TRT01A":"Xanomeline Low Dose","TRT01AN":2,"SAFFL":"Y","ITTFL":"Y","EFFFL":"Y","COMPFL":"Y","SITEID":"701","AGE":79,"AGEGR1":"65-80","SEX":"M","RACE":"WHITE","ARMCD":"Xan_Lo","TRTSDT":"2012-10-02","TRTEDT":"2013-04-02"},{"STUDYID":"CDISCPILOT01","USUBJID":"01-701-1324","DOMAIN":"ADQS","PARAMCD":"NPTOT9","PARAM":"NPI-X 9-Domain Total Score","PARAMN":1,"AVISIT":"Week 24","AVISITN":24,"ADT":"2013-03-19","ADY":169,"AVAL":2,"BASE":1,"CHG":1,"ABLFL":null,"TRT01A":"Xanomeline Low Dose","TRT01AN":2,"SAFFL":"Y","ITTFL":"Y","EFFFL":"Y","COMPFL":"Y","SITEID":"701","AGE":79,"AGEGR1":"65-80","SEX":"M","RACE":"WHITE","ARMCD":"Xan_Lo","TRTSDT":"2012-10-02","TRTEDT":"2013-04-02"},{"STUDYID":"CDISCPILOT01","USUBJID":"01-701-1324","DOMAIN":"ADQS","PARAMCD":"NPTMN24","PARAM":"Mean NPI-X 9-Domain Total Score (Weeks 4-24)","PARAMN":2,"AVISIT":"Weeks 4-24 Mean","AVISITN":99,"ADT":null,"ADY":null,"AVAL":2.2727,"BASE":1,"CHG":1.2727,"ABLFL":null,"TRT01A":"Xanomeline Low Dose","TRT01AN":2,"SAFFL":"Y","ITTFL":"Y","EFFFL":"Y","COMPFL":"Y","SITEID":"701","AGE":79,"AGEGR1":"65-80","SEX":"M","RACE":"WHITE","ARMCD":"Xan_Lo","TRTSDT":"2012-10-02","TRTEDT":"2013-04-02"},{"STUDYID":"CDISCPILOT01","USUBJID":"01-701-1341","DOMAIN":"ADQS","PARAMCD":"NPTOT9","PARAM":"NPI-X 9-Domain Total Score","PARAMN":1,"AVISIT":"Baseline","AVISITN":0,"ADT":"2013-01-05","ADY":1,"AVAL":1,"BASE":1,"CHG":null,"ABLFL":"Y","TRT01A":"Xanomeline Low Dose","TRT01AN":2,"SAFFL":"Y","ITTFL":"Y","EFFFL":"Y","COMPFL":"N","SITEID":"701","AGE":51,"AGEGR1":"<65","SEX":"M","RACE":"WHITE","ARMCD":"Xan_Lo","TRTSDT":"2013-01-05","TRTEDT":"2013-01-26"},{"STUDYID":"CDISCPILOT01","USUBJID":"01-701-1341","DOMAIN":"ADQS","PARAMCD":"NPTOT9","PARAM":"NPI-X 9-Domain Total Score","PARAMN":1,"AVISIT":"Week 2","AVISITN":2,"ADT":"2013-01-18","ADY":14,"AVAL":1,"BASE":1,"CHG":0,"ABLFL":null,"TRT01A":"Xanomeline Low Dose","TRT01AN":2,"SAFFL":"Y","ITTFL":"Y","EFFFL":"Y","COMPFL":"N","SITEID":"701","AGE":51,"AGEGR1":"<65","SEX":"M","RACE":"WHITE","ARMCD":"Xan_Lo","TRTSDT":"2013-01-05","TRTEDT":"2013-01-26"},{"STUDYID":"CDISCPILOT01","USUBJID":"01-701-1341","DOMAIN":"ADQS","PARAMCD":"NPTOT9","PARAM":"NPI-X 9-Domain Total Score","PARAMN":1,"AVISIT":"Week 4","AVISITN":4,"ADT":"2013-02-07","ADY":34,"AVAL":1,"BASE":1,"CHG":0,"ABLFL":null,"TRT01A":"Xanomeline Low Dose","TRT01AN":2,"SAFFL":"Y","ITTFL":"Y","EFFFL":"Y","COMPFL":"N","SITEID":"701","AGE":51,"AGEGR1":"<65","SEX":"M","RACE":"WHITE","ARMCD":"Xan_Lo","TRTSDT":"2013-01-05","TRTEDT":"2013-01-26"},{"STUDYID":"CDISCPILOT01","USUBJID":"01-701-1341","DOMAIN":"ADQS","PARAMCD":"NPTMN24","PARAM":"Mean NPI-X 9-Domain Total Score (Weeks 4-24)","PARAMN":2,"AVISIT":"Weeks 4-24 Mean","AVISITN":99,"ADT":null,"ADY":null,"AVAL":1,"BASE":1,"CHG":0,"ABLFL":null,"TRT01A":"Xanomeline Low Dose","TRT01AN":2,"SAFFL":"Y","ITTFL":"Y","EFFFL":"Y","COMPFL":"N","SITEID":"701","AGE":51,"AGEGR1":"<65","SEX":"M","RACE":"WHITE","ARMCD":"Xan_Lo","TRTSDT":"2013-01-05","TRTEDT":"2013-01-26"},{"STUDYID":"CDISCPILOT01","USUBJID":"01-701-1345","DOMAIN":"ADQS","PARAMCD":"NPTOT9","PARAM":"NPI-X 9-Domain Total Score","PARAMN":1,"AVISIT":"Baseline","AVISITN":0,"ADT":"2013-10-08","ADY":1,"AVAL":0,"BASE":0,"CHG":null,"ABLFL":"Y","TRT01A":"Placebo","TRT01AN":1,"SAFFL":"Y","ITTFL":"Y","EFFFL":"Y","COMPFL":"Y","SITEID":"701","AGE":63,"AGEGR1":"<65","SEX":"F","RACE":"WHITE","ARMCD":"Pbo","TRTSDT":"2013-10-08","TRTEDT":"2014-03-18"},{"STUDYID":"CDISCPILOT01","USUBJID":"01-701-1345","DOMAIN":"ADQS","PARAMCD":"NPTOT9","PARAM":"NPI-X 9-Domain Total Score","PARAMN":1,"AVISIT":"Week 2","AVISITN":2,"ADT":"2013-10-24","ADY":17,"AVAL":1,"BASE":0,"CHG":1,"ABLFL":null,"TRT01A":"Placebo","TRT01AN":1,"SAFFL":"Y","ITTFL":"Y","EFFFL":"Y","COMPFL":"Y","SITEID":"701","AGE":63,"AGEGR1":"<65","SEX":"F","RACE":"WHITE","ARMCD":"Pbo","TRTSDT":"2013-10-08","TRTEDT":"2014-03-18"},{"STUDYID":"CDISCPILOT01","USUBJID":"01-701-1345","DOMAIN":"ADQS","PARAMCD":"NPTOT9","PARAM":"NPI-X 9-Domain Total Score","PARAMN":1,"AVISIT":"Week 4","AVISITN":4,"ADT":"2013-11-08","ADY":32,"AVAL":0,"BASE":0,"CHG":0,"ABLFL":null,"TRT01A":"Placebo","TRT01AN":1,"SAFFL":"Y","ITTFL":"Y","EFFFL":"Y","COMPFL":"Y","SITEID":"701","AGE":63,"AGEGR1":"<65","SEX":"F","RACE":"WHITE","ARMCD":"Pbo","TRTSDT":"2013-10-08","TRTEDT":"2014-03-18"},{"STUDYID":"CDISCPILOT01","USUBJID":"01-701-1345","DOMAIN":"ADQS","PARAMCD":"NPTOT9","PARAM":"NPI-X 9-Domain Total Score","PARAMN":1,"AVISIT":"Week 6","AVISITN":6,"ADT":"2013-11-19","ADY":43,"AVAL":0,"BASE":0,"CHG":0,"ABLFL":null,"TRT01A":"Placebo","TRT01AN":1,"SAFFL":"Y","ITTFL":"Y","EFFFL":"Y","COMPFL":"Y","SITEID":"701","AGE":63,"AGEGR1":"<65","SEX":"F","RACE":"WHITE","ARMCD":"Pbo","TRTSDT":"2013-10-08","TRTEDT":"2014-03-18"},{"STUDYID":"CDISCPILOT01","USUBJID":"01-701-1345","DOMAIN":"ADQS","PARAMCD":"NPTOT9","PARAM":"NPI-X 9-Domain Total Score","PARAMN":1,"AVISIT":"Week 8","AVISITN":8,"ADT":"2013-12-03","ADY":57,"AVAL":0,"BASE":0,"CHG":0,"ABLFL":null,"TRT01A":"Placebo","TRT01AN":1,"SAFFL":"Y","ITTFL":"Y","EFFFL":"Y","COMPFL":"Y","SITEID":"701","AGE":63,"AGEGR1":"<65","SEX":"F","RACE":"WHITE","ARMCD":"Pbo","TRTSDT":"2013-10-08","TRTEDT":"2014-03-18"},{"STUDYID":"CDISCPILOT01","USUBJID":"01-701-1345","DOMAIN":"ADQS","PARAMCD":"NPTOT9","PARAM":"NPI-X 9-Domain Total Score","PARAMN":1,"AVISIT":"Week 10","AVISITN":10,"ADT":"2013-12-18","ADY":72,"AVAL":0,"BASE":0,"CHG":0,"ABLFL":null,"TRT01A":"Placebo","TRT01AN":1,"SAFFL":"Y","ITTFL":"Y","EFFFL":"Y","COMPFL":"Y","SITEID":"701","AGE":63,"AGEGR1":"<65","SEX":"F","RACE":"WHITE","ARMCD":"Pbo","TRTSDT":"2013-10-08","TRTEDT":"2014-03-18"},{"STUDYID":"CDISCPILOT01","USUBJID":"01-701-1345","DOMAIN":"ADQS","PARAMCD":"NPTOT9","PARAM":"NPI-X 9-Domain Total Score","PARAMN":1,"AVISIT":"Week 12","AVISITN":12,"ADT":"2013-12-31","ADY":85,"AVAL":0,"BASE":0,"CHG":0,"ABLFL":null,"TRT01A":"Placebo","TRT01AN":1,"SAFFL":"Y","ITTFL":"Y","EFFFL":"Y","COMPFL":"Y","SITEID":"701","AGE":63,"AGEGR1":"<65","SEX":"F","RACE":"WHITE","ARMCD":"Pbo","TRTSDT":"2013-10-08","TRTEDT":"2014-03-18"},{"STUDYID":"CDISCPILOT01","USUBJID":"01-701-1345","DOMAIN":"ADQS","PARAMCD":"NPTOT9","PARAM":"NPI-X 9-Domain Total Score","PARAMN":1,"AVISIT":"Week 14","AVISITN":14,"ADT":"2014-01-14","ADY":99,"AVAL":0,"BASE":0,"CHG":0,"ABLFL":null,"TRT01A":"Placebo","TRT01AN":1,"SAFFL":"Y","ITTFL":"Y","EFFFL":"Y","COMPFL":"Y","SITEID":"701","AGE":63,"AGEGR1":"<65","SEX":"F","RACE":"WHITE","ARMCD":"Pbo","TRTSDT":"2013-10-08","TRTEDT":"2014-03-18"},{"STUDYID":"CDISCPILOT01","USUBJID":"01-701-1345","DOMAIN":"ADQS","PARAMCD":"NPTOT9","PARAM":"NPI-X 9-Domain Total Score","PARAMN":1,"AVISIT":"Week 16","AVISITN":16,"ADT":"2014-01-27","ADY":112,"AVAL":0,"BASE":0,"CHG":0,"ABLFL":null,"TRT01A":"Placebo","TRT01AN":1,"SAFFL":"Y","ITTFL":"Y","EFFFL":"Y","COMPFL":"Y","SITEID":"701","AGE":63,"AGEGR1":"<65","SEX":"F","RACE":"WHITE","ARMCD":"Pbo","TRTSDT":"2013-10-08","TRTEDT":"2014-03-18"},{"STUDYID":"CDISCPILOT01","USUBJID":"01-701-1345","DOMAIN":"ADQS","PARAMCD":"NPTOT9","PARAM":"NPI-X 9-Domain Total Score","PARAMN":1,"AVISIT":"Week 18","AVISITN":18,"ADT":"2014-02-11","ADY":127,"AVAL":0,"BASE":0,"CHG":0,"ABLFL":null,"TRT01A":"Placebo","TRT01AN":1,"SAFFL":"Y","ITTFL":"Y","EFFFL":"Y","COMPFL":"Y","SITEID":"701","AGE":63,"AGEGR1":"<65","SEX":"F","RACE":"WHITE","ARMCD":"Pbo","TRTSDT":"2013-10-08","TRTEDT":"2014-03-18"},{"STUDYID":"CDISCPILOT01","USUBJID":"01-701-1345","DOMAIN":"ADQS","PARAMCD":"NPTOT9","PARAM":"NPI-X 9-Domain Total Score","PARAMN":1,"AVISIT":"Week 20","AVISITN":20,"ADT":"2014-02-25","ADY":141,"AVAL":1,"BASE":0,"CHG":1,"ABLFL":null,"TRT01A":"Placebo","TRT01AN":1,"SAFFL":"Y","ITTFL":"Y","EFFFL":"Y","COMPFL":"Y","SITEID":"701","AGE":63,"AGEGR1":"<65","SEX":"F","RACE":"WHITE","ARMCD":"Pbo","TRTSDT":"2013-10-08","TRTEDT":"2014-03-18"},{"STUDYID":"CDISCPILOT01","USUBJID":"01-701-1345","DOMAIN":"ADQS","PARAMCD":"NPTOT9","PARAM":"NPI-X 9-Domain Total Score","PARAMN":1,"AVISIT":"Week 22","AVISITN":22,"ADT":"2014-03-11","ADY":155,"AVAL":1,"BASE":0,"CHG":1,"ABLFL":null,"TRT01A":"Placebo","TRT01AN":1,"SAFFL":"Y","ITTFL":"Y","EFFFL":"Y","COMPFL":"Y","SITEID":"701","AGE":63,"AGEGR1":"<65","SEX":"F","RACE":"WHITE","ARMCD":"Pbo","TRTSDT":"2013-10-08","TRTEDT":"2014-03-18"},{"STUDYID":"CDISCPILOT01","USUBJID":"01-701-1345","DOMAIN":"ADQS","PARAMCD":"NPTOT9","PARAM":"NPI-X 9-Domain Total Score","PARAMN":1,"AVISIT":"Week 24","AVISITN":24,"ADT":"2014-03-18","ADY":162,"AVAL":0,"BASE":0,"CHG":0,"ABLFL":null,"TRT01A":"Placebo","TRT01AN":1,"SAFFL":"Y","ITTFL":"Y","EFFFL":"Y","COMPFL":"Y","SITEID":"701","AGE":63,"AGEGR1":"<65","SEX":"F","RACE":"WHITE","ARMCD":"Pbo","TRTSDT":"2013-10-08","TRTEDT":"2014-03-18"},{"STUDYID":"CDISCPILOT01","USUBJID":"01-701-1345","DOMAIN":"ADQS","PARAMCD":"NPTMN24","PARAM":"Mean NPI-X 9-Domain Total Score (Weeks 4-24)","PARAMN":2,"AVISIT":"Weeks 4-24 Mean","AVISITN":99,"ADT":null,"ADY":null,"AVAL":0.1818,"BASE":0,"CHG":0.1818,"ABLFL":null,"TRT01A":"Placebo","TRT01AN":1,"SAFFL":"Y","ITTFL":"Y","EFFFL":"Y","COMPFL":"Y","SITEID":"701","AGE":63,"AGEGR1":"<65","SEX":"F","RACE":"WHITE","ARMCD":"Pbo","TRTSDT":"2013-10-08","TRTEDT":"2014-03-18"},{"STUDYID":"CDISCPILOT01","USUBJID":"01-701-1360","DOMAIN":"ADQS","PARAMCD":"NPTOT9","PARAM":"NPI-X 9-Domain Total Score","PARAMN":1,"AVISIT":"Baseline","AVISITN":0,"ADT":"2013-07-31","ADY":1,"AVAL":4,"BASE":4,"CHG":null,"ABLFL":"Y","TRT01A":"Xanomeline High Dose","TRT01AN":3,"SAFFL":"Y","ITTFL":"Y","EFFFL":"Y","COMPFL":"N","SITEID":"701","AGE":67,"AGEGR1":"65-80","SEX":"M","RACE":"WHITE","ARMCD":"Xan_Hi","TRTSDT":"2013-07-31","TRTEDT":"2013-08-05"},{"STUDYID":"CDISCPILOT01","USUBJID":"01-701-1360","DOMAIN":"ADQS","PARAMCD":"NPTOT9","PARAM":"NPI-X 9-Domain Total Score","PARAMN":1,"AVISIT":"Week 2","AVISITN":2,"ADT":"2013-08-14","ADY":15,"AVAL":3,"BASE":4,"CHG":-1,"ABLFL":null,"TRT01A":"Xanomeline High Dose","TRT01AN":3,"SAFFL":"Y","ITTFL":"Y","EFFFL":"Y","COMPFL":"N","SITEID":"701","AGE":67,"AGEGR1":"65-80","SEX":"M","RACE":"WHITE","ARMCD":"Xan_Hi","TRTSDT":"2013-07-31","TRTEDT":"2013-08-05"},{"STUDYID":"CDISCPILOT01","USUBJID":"01-701-1360","DOMAIN":"ADQS","PARAMCD":"NPTMN24","PARAM":"Mean NPI-X 9-Domain Total Score (Weeks 4-24)","PARAMN":2,"AVISIT":"Weeks 4-24 Mean","AVISITN":99,"ADT":null,"ADY":null,"AVAL":null,"BASE":4,"CHG":null,"ABLFL":null,"TRT01A":"Xanomeline High Dose","TRT01AN":3,"SAFFL":"Y","ITTFL":"Y","EFFFL":"Y","COMPFL":"N","SITEID":"701","AGE":67,"AGEGR1":"65-80","SEX":"M","RACE":"WHITE","ARMCD":"Xan_Hi","TRTSDT":"2013-07-31","TRTEDT":"2013-08-05"},{"STUDYID":"CDISCPILOT01","USUBJID":"01-701-1363","DOMAIN":"ADQS","PARAMCD":"NPTOT9","PARAM":"NPI-X 9-Domain Total Score","PARAMN":1,"AVISIT":"Baseline","AVISITN":0,"ADT":"2013-05-30","ADY":1,"AVAL":7,"BASE":7,"CHG":null,"ABLFL":"Y","TRT01A":"Placebo","TRT01AN":1,"SAFFL":"Y","ITTFL":"Y","EFFFL":"Y","COMPFL":"Y","SITEID":"701","AGE":81,"AGEGR1":">80","SEX":"F","RACE":"BLACK OR AFRICAN AMERICAN","ARMCD":"Pbo","TRTSDT":"2013-05-30","TRTEDT":"2013-11-27"},{"STUDYID":"CDISCPILOT01","USUBJID":"01-701-1363","DOMAIN":"ADQS","PARAMCD":"NPTOT9","PARAM":"NPI-X 9-Domain Total Score","PARAMN":1,"AVISIT":"Week 2","AVISITN":2,"ADT":"2013-06-12","ADY":14,"AVAL":4,"BASE":7,"CHG":-3,"ABLFL":null,"TRT01A":"Placebo","TRT01AN":1,"SAFFL":"Y","ITTFL":"Y","EFFFL":"Y","COMPFL":"Y","SITEID":"701","AGE":81,"AGEGR1":">80","SEX":"F","RACE":"BLACK OR AFRICAN AMERICAN","ARMCD":"Pbo","TRTSDT":"2013-05-30","TRTEDT":"2013-11-27"},{"STUDYID":"CDISCPILOT01","USUBJID":"01-701-1363","DOMAIN":"ADQS","PARAMCD":"NPTOT9","PARAM":"NPI-X 9-Domain Total Score","PARAMN":1,"AVISIT":"Week 4","AVISITN":4,"ADT":"2013-06-25","ADY":27,"AVAL":5,"BASE":7,"CHG":-2,"ABLFL":null,"TRT01A":"Placebo","TRT01AN":1,"SAFFL":"Y","ITTFL":"Y","EFFFL":"Y","COMPFL":"Y","SITEID":"701","AGE":81,"AGEGR1":">80","SEX":"F","RACE":"BLACK OR AFRICAN AMERICAN","ARMCD":"Pbo","TRTSDT":"2013-05-30","TRTEDT":"2013-11-27"},{"STUDYID":"CDISCPILOT01","USUBJID":"01-701-1363","DOMAIN":"ADQS","PARAMCD":"NPTOT9","PARAM":"NPI-X 9-Domain Total Score","PARAMN":1,"AVISIT":"Week 6","AVISITN":6,"ADT":"2013-07-10","ADY":42,"AVAL":5,"BASE":7,"CHG":-2,"ABLFL":null,"TRT01A":"Placebo","TRT01AN":1,"SAFFL":"Y","ITTFL":"Y","EFFFL":"Y","COMPFL":"Y","SITEID":"701","AGE":81,"AGEGR1":">80","SEX":"F","RACE":"BLACK OR AFRICAN AMERICAN","ARMCD":"Pbo","TRTSDT":"2013-05-30","TRTEDT":"2013-11-27"},{"STUDYID":"CDISCPILOT01","USUBJID":"01-701-1363","DOMAIN":"ADQS","PARAMCD":"NPTOT9","PARAM":"NPI-X 9-Domain Total Score","PARAMN":1,"AVISIT":"Week 8","AVISITN":8,"ADT":"2013-07-24","ADY":56,"AVAL":6,"BASE":7,"CHG":-1,"ABLFL":null,"TRT01A":"Placebo","TRT01AN":1,"SAFFL":"Y","ITTFL":"Y","EFFFL":"Y","COMPFL":"Y","SITEID":"701","AGE":81,"AGEGR1":">80","SEX":"F","RACE":"BLACK OR AFRICAN AMERICAN","ARMCD":"Pbo","TRTSDT":"2013-05-30","TRTEDT":"2013-11-27"},{"STUDYID":"CDISCPILOT01","USUBJID":"01-701-1363","DOMAIN":"ADQS","PARAMCD":"NPTOT9","PARAM":"NPI-X 9-Domain Total Score","PARAMN":1,"AVISIT":"Week 10","AVISITN":10,"ADT":"2013-08-07","ADY":70,"AVAL":1,"BASE":7,"CHG":-6,"ABLFL":null,"TRT01A":"Placebo","TRT01AN":1,"SAFFL":"Y","ITTFL":"Y","EFFFL":"Y","COMPFL":"Y","SITEID":"701","AGE":81,"AGEGR1":">80","SEX":"F","RACE":"BLACK OR AFRICAN AMERICAN","ARMCD":"Pbo","TRTSDT":"2013-05-30","TRTEDT":"2013-11-27"},{"STUDYID":"CDISCPILOT01","USUBJID":"01-701-1363","DOMAIN":"ADQS","PARAMCD":"NPTOT9","PARAM":"NPI-X 9-Domain Total Score","PARAMN":1,"AVISIT":"Week 12","AVISITN":12,"ADT":"2013-08-21","ADY":84,"AVAL":3,"BASE":7,"CHG":-4,"ABLFL":null,"TRT01A":"Placebo","TRT01AN":1,"SAFFL":"Y","ITTFL":"Y","EFFFL":"Y","COMPFL":"Y","SITEID":"701","AGE":81,"AGEGR1":">80","SEX":"F","RACE":"BLACK OR AFRICAN AMERICAN","ARMCD":"Pbo","TRTSDT":"2013-05-30","TRTEDT":"2013-11-27"},{"STUDYID":"CDISCPILOT01","USUBJID":"01-701-1363","DOMAIN":"ADQS","PARAMCD":"NPTOT9","PARAM":"NPI-X 9-Domain Total Score","PARAMN":1,"AVISIT":"Week 14","AVISITN":14,"ADT":"2013-09-04","ADY":98,"AVAL":6,"BASE":7,"CHG":-1,"ABLFL":null,"TRT01A":"Placebo","TRT01AN":1,"SAFFL":"Y","ITTFL":"Y","EFFFL":"Y","COMPFL":"Y","SITEID":"701","AGE":81,"AGEGR1":">80","SEX":"F","RACE":"BLACK OR AFRICAN AMERICAN","ARMCD":"Pbo","TRTSDT":"2013-05-30","TRTEDT":"2013-11-27"},{"STUDYID":"CDISCPILOT01","USUBJID":"01-701-1363","DOMAIN":"ADQS","PARAMCD":"NPTOT9","PARAM":"NPI-X 9-Domain Total Score","PARAMN":1,"AVISIT":"Week 16","AVISITN":16,"ADT":"2013-09-18","ADY":112,"AVAL":4,"BASE":7,"CHG":-3,"ABLFL":null,"TRT01A":"Placebo","TRT01AN":1,"SAFFL":"Y","ITTFL":"Y","EFFFL":"Y","COMPFL":"Y","SITEID":"701","AGE":81,"AGEGR1":">80","SEX":"F","RACE":"BLACK OR AFRICAN AMERICAN","ARMCD":"Pbo","TRTSDT":"2013-05-30","TRTEDT":"2013-11-27"},{"STUDYID":"CDISCPILOT01","USUBJID":"01-701-1363","DOMAIN":"ADQS","PARAMCD":"NPTOT9","PARAM":"NPI-X 9-Domain Total Score","PARAMN":1,"AVISIT":"Week 18","AVISITN":18,"ADT":"2013-10-02","ADY":126,"AVAL":3,"BASE":7,"CHG":-4,"ABLFL":null,"TRT01A":"Placebo","TRT01AN":1,"SAFFL":"Y","ITTFL":"Y","EFFFL":"Y","COMPFL":"Y","SITEID":"701","AGE":81,"AGEGR1":">80","SEX":"F","RACE":"BLACK OR AFRICAN AMERICAN","ARMCD":"Pbo","TRTSDT":"2013-05-30","TRTEDT":"2013-11-27"},{"STUDYID":"CDISCPILOT01","USUBJID":"01-701-1363","DOMAIN":"ADQS","PARAMCD":"NPTOT9","PARAM":"NPI-X 9-Domain Total Score","PARAMN":1,"AVISIT":"Week 20","AVISITN":20,"ADT":"2013-10-14","ADY":138,"AVAL":6,"BASE":7,"CHG":-1,"ABLFL":null,"TRT01A":"Placebo","TRT01AN":1,"SAFFL":"Y","ITTFL":"Y","EFFFL":"Y","COMPFL":"Y","SITEID":"701","AGE":81,"AGEGR1":">80","SEX":"F","RACE":"BLACK OR AFRICAN AMERICAN","ARMCD":"Pbo","TRTSDT":"2013-05-30","TRTEDT":"2013-11-27"},{"STUDYID":"CDISCPILOT01","USUBJID":"01-701-1363","DOMAIN":"ADQS","PARAMCD":"NPTOT9","PARAM":"NPI-X 9-Domain Total Score","PARAMN":1,"AVISIT":"Week 22","AVISITN":22,"ADT":"2013-10-30","ADY":154,"AVAL":4,"BASE":7,"CHG":-3,"ABLFL":null,"TRT01A":"Placebo","TRT01AN":1,"SAFFL":"Y","ITTFL":"Y","EFFFL":"Y","COMPFL":"Y","SITEID":"701","AGE":81,"AGEGR1":">80","SEX":"F","RACE":"BLACK OR AFRICAN AMERICAN","ARMCD":"Pbo","TRTSDT":"2013-05-30","TRTEDT":"2013-11-27"},{"STUDYID":"CDISCPILOT01","USUBJID":"01-701-1363","DOMAIN":"ADQS","PARAMCD":"NPTOT9","PARAM":"NPI-X 9-Domain Total Score","PARAMN":1,"AVISIT":"Week 24","AVISITN":24,"ADT":"2013-11-13","ADY":168,"AVAL":4,"BASE":7,"CHG":-3,"ABLFL":null,"TRT01A":"Placebo","TRT01AN":1,"SAFFL":"Y","ITTFL":"Y","EFFFL":"Y","COMPFL":"Y","SITEID":"701","AGE":81,"AGEGR1":">80","SEX":"F","RACE":"BLACK OR AFRICAN AMERICAN","ARMCD":"Pbo","TRTSDT":"2013-05-30","TRTEDT":"2013-11-27"},{"STUDYID":"CDISCPILOT01","USUBJID":"01-701-1363","DOMAIN":"ADQS","PARAMCD":"NPTMN24","PARAM":"Mean NPI-X 9-Domain Total Score (Weeks 4-24)","PARAMN":2,"AVISIT":"Weeks 4-24 Mean","AVISITN":99,"ADT":null,"ADY":null,"AVAL":4.2727,"BASE":7,"CHG":-2.7273,"ABLFL":null,"TRT01A":"Placebo","TRT01AN":1,"SAFFL":"Y","ITTFL":"Y","EFFFL":"Y","COMPFL":"Y","SITEID":"701","AGE":81,"AGEGR1":">80","SEX":"F","RACE":"BLACK OR AFRICAN AMERICAN","ARMCD":"Pbo","TRTSDT":"2013-05-30","TRTEDT":"2013-11-27"},{"STUDYID":"CDISCPILOT01","USUBJID":"01-701-1383","DOMAIN":"ADQS","PARAMCD":"NPTOT9","PARAM":"NPI-X 9-Domain Total Score","PARAMN":1,"AVISIT":"Baseline","AVISITN":0,"ADT":"2013-02-04","ADY":1,"AVAL":0,"BASE":0,"CHG":null,"ABLFL":"Y","TRT01A":"Xanomeline High Dose","TRT01AN":3,"SAFFL":"Y","ITTFL":"Y","EFFFL":"Y","COMPFL":"Y","SITEID":"701","AGE":72,"AGEGR1":"65-80","SEX":"F","RACE":"WHITE","ARMCD":"Xan_Hi","TRTSDT":"2013-02-04","TRTEDT":"2013-08-06"},{"STUDYID":"CDISCPILOT01","USUBJID":"01-701-1383","DOMAIN":"ADQS","PARAMCD":"NPTOT9","PARAM":"NPI-X 9-Domain Total Score","PARAMN":1,"AVISIT":"Week 2","AVISITN":2,"ADT":"2013-02-19","ADY":16,"AVAL":1,"BASE":0,"CHG":1,"ABLFL":null,"TRT01A":"Xanomeline High Dose","TRT01AN":3,"SAFFL":"Y","ITTFL":"Y","EFFFL":"Y","COMPFL":"Y","SITEID":"701","AGE":72,"AGEGR1":"65-80","SEX":"F","RACE":"WHITE","ARMCD":"Xan_Hi","TRTSDT":"2013-02-04","TRTEDT":"2013-08-06"},{"STUDYID":"CDISCPILOT01","USUBJID":"01-701-1383","DOMAIN":"ADQS","PARAMCD":"NPTOT9","PARAM":"NPI-X 9-Domain Total Score","PARAMN":1,"AVISIT":"Week 4","AVISITN":4,"ADT":"2013-03-12","ADY":37,"AVAL":0,"BASE":0,"CHG":0,"ABLFL":null,"TRT01A":"Xanomeline High Dose","TRT01AN":3,"SAFFL":"Y","ITTFL":"Y","EFFFL":"Y","COMPFL":"Y","SITEID":"701","AGE":72,"AGEGR1":"65-80","SEX":"F","RACE":"WHITE","ARMCD":"Xan_Hi","TRTSDT":"2013-02-04","TRTEDT":"2013-08-06"},{"STUDYID":"CDISCPILOT01","USUBJID":"01-701-1383","DOMAIN":"ADQS","PARAMCD":"NPTOT9","PARAM":"NPI-X 9-Domain Total Score","PARAMN":1,"AVISIT":"Week 6","AVISITN":6,"ADT":"2013-03-19","ADY":44,"AVAL":0,"BASE":0,"CHG":0,"ABLFL":null,"TRT01A":"Xanomeline High Dose","TRT01AN":3,"SAFFL":"Y","ITTFL":"Y","EFFFL":"Y","COMPFL":"Y","SITEID":"701","AGE":72,"AGEGR1":"65-80","SEX":"F","RACE":"WHITE","ARMCD":"Xan_Hi","TRTSDT":"2013-02-04","TRTEDT":"2013-08-06"},{"STUDYID":"CDISCPILOT01","USUBJID":"01-701-1383","DOMAIN":"ADQS","PARAMCD":"NPTOT9","PARAM":"NPI-X 9-Domain Total Score","PARAMN":1,"AVISIT":"Week 8","AVISITN":8,"ADT":"2013-04-02","ADY":58,"AVAL":0,"BASE":0,"CHG":0,"ABLFL":null,"TRT01A":"Xanomeline High Dose","TRT01AN":3,"SAFFL":"Y","ITTFL":"Y","EFFFL":"Y","COMPFL":"Y","SITEID":"701","AGE":72,"AGEGR1":"65-80","SEX":"F","RACE":"WHITE","ARMCD":"Xan_Hi","TRTSDT":"2013-02-04","TRTEDT":"2013-08-06"},{"STUDYID":"CDISCPILOT01","USUBJID":"01-701-1383","DOMAIN":"ADQS","PARAMCD":"NPTOT9","PARAM":"NPI-X 9-Domain Total Score","PARAMN":1,"AVISIT":"Week 10","AVISITN":10,"ADT":"2013-04-16","ADY":72,"AVAL":0,"BASE":0,"CHG":0,"ABLFL":null,"TRT01A":"Xanomeline High Dose","TRT01AN":3,"SAFFL":"Y","ITTFL":"Y","EFFFL":"Y","COMPFL":"Y","SITEID":"701","AGE":72,"AGEGR1":"65-80","SEX":"F","RACE":"WHITE","ARMCD":"Xan_Hi","TRTSDT":"2013-02-04","TRTEDT":"2013-08-06"},{"STUDYID":"CDISCPILOT01","USUBJID":"01-701-1383","DOMAIN":"ADQS","PARAMCD":"NPTOT9","PARAM":"NPI-X 9-Domain Total Score","PARAMN":1,"AVISIT":"Week 12","AVISITN":12,"ADT":"2013-04-30","ADY":86,"AVAL":0,"BASE":0,"CHG":0,"ABLFL":null,"TRT01A":"Xanomeline High Dose","TRT01AN":3,"SAFFL":"Y","ITTFL":"Y","EFFFL":"Y","COMPFL":"Y","SITEID":"701","AGE":72,"AGEGR1":"65-80","SEX":"F","RACE":"WHITE","ARMCD":"Xan_Hi","TRTSDT":"2013-02-04","TRTEDT":"2013-08-06"},{"STUDYID":"CDISCPILOT01","USUBJID":"01-701-1383","DOMAIN":"ADQS","PARAMCD":"NPTOT9","PARAM":"NPI-X 9-Domain Total Score","PARAMN":1,"AVISIT":"Week 14","AVISITN":14,"ADT":"2013-05-14","ADY":100,"AVAL":0,"BASE":0,"CHG":0,"ABLFL":null,"TRT01A":"Xanomeline High Dose","TRT01AN":3,"SAFFL":"Y","ITTFL":"Y","EFFFL":"Y","COMPFL":"Y","SITEID":"701","AGE":72,"AGEGR1":"65-80","SEX":"F","RACE":"WHITE","ARMCD":"Xan_Hi","TRTSDT":"2013-02-04","TRTEDT":"2013-08-06"},{"STUDYID":"CDISCPILOT01","USUBJID":"01-701-1383","DOMAIN":"ADQS","PARAMCD":"NPTOT9","PARAM":"NPI-X 9-Domain Total Score","PARAMN":1,"AVISIT":"Week 16","AVISITN":16,"ADT":"2013-05-30","ADY":116,"AVAL":0,"BASE":0,"CHG":0,"ABLFL":null,"TRT01A":"Xanomeline High Dose","TRT01AN":3,"SAFFL":"Y","ITTFL":"Y","EFFFL":"Y","COMPFL":"Y","SITEID":"701","AGE":72,"AGEGR1":"65-80","SEX":"F","RACE":"WHITE","ARMCD":"Xan_Hi","TRTSDT":"2013-02-04","TRTEDT":"2013-08-06"},{"STUDYID":"CDISCPILOT01","USUBJID":"01-701-1383","DOMAIN":"ADQS","PARAMCD":"NPTOT9","PARAM":"NPI-X 9-Domain Total Score","PARAMN":1,"AVISIT":"Week 18","AVISITN":18,"ADT":"2013-06-13","ADY":130,"AVAL":0,"BASE":0,"CHG":0,"ABLFL":null,"TRT01A":"Xanomeline High Dose","TRT01AN":3,"SAFFL":"Y","ITTFL":"Y","EFFFL":"Y","COMPFL":"Y","SITEID":"701","AGE":72,"AGEGR1":"65-80","SEX":"F","RACE":"WHITE","ARMCD":"Xan_Hi","TRTSDT":"2013-02-04","TRTEDT":"2013-08-06"},{"STUDYID":"CDISCPILOT01","USUBJID":"01-701-1383","DOMAIN":"ADQS","PARAMCD":"NPTOT9","PARAM":"NPI-X 9-Domain Total Score","PARAMN":1,"AVISIT":"Week 20","AVISITN":20,"ADT":"2013-06-25","ADY":142,"AVAL":0,"BASE":0,"CHG":0,"ABLFL":null,"TRT01A":"Xanomeline High Dose","TRT01AN":3,"SAFFL":"Y","ITTFL":"Y","EFFFL":"Y","COMPFL":"Y","SITEID":"701","AGE":72,"AGEGR1":"65-80","SEX":"F","RACE":"WHITE","ARMCD":"Xan_Hi","TRTSDT":"2013-02-04","TRTEDT":"2013-08-06"},{"STUDYID":"CDISCPILOT01","USUBJID":"01-701-1383","DOMAIN":"ADQS","PARAMCD":"NPTOT9","PARAM":"NPI-X 9-Domain Total Score","PARAMN":1,"AVISIT":"Week 22","AVISITN":22,"ADT":"2013-07-09","ADY":156,"AVAL":0,"BASE":0,"CHG":0,"ABLFL":null,"TRT01A":"Xanomeline High Dose","TRT01AN":3,"SAFFL":"Y","ITTFL":"Y","EFFFL":"Y","COMPFL":"Y","SITEID":"701","AGE":72,"AGEGR1":"65-80","SEX":"F","RACE":"WHITE","ARMCD":"Xan_Hi","TRTSDT":"2013-02-04","TRTEDT":"2013-08-06"},{"STUDYID":"CDISCPILOT01","USUBJID":"01-701-1383","DOMAIN":"ADQS","PARAMCD":"NPTOT9","PARAM":"NPI-X 9-Domain Total Score","PARAMN":1,"AVISIT":"Week 24","AVISITN":24,"ADT":"2013-07-30","ADY":177,"AVAL":0,"BASE":0,"CHG":0,"ABLFL":null,"TRT01A":"Xanomeline High Dose","TRT01AN":3,"SAFFL":"Y","ITTFL":"Y","EFFFL":"Y","COMPFL":"Y","SITEID":"701","AGE":72,"AGEGR1":"65-80","SEX":"F","RACE":"WHITE","ARMCD":"Xan_Hi","TRTSDT":"2013-02-04","TRTEDT":"2013-08-06"},{"STUDYID":"CDISCPILOT01","USUBJID":"01-701-1383","DOMAIN":"ADQS","PARAMCD":"NPTMN24","PARAM":"Mean NPI-X 9-Domain Total Score (Weeks 4-24)","PARAMN":2,"AVISIT":"Weeks 4-24 Mean","AVISITN":99,"ADT":null,"ADY":null,"AVAL":0,"BASE":0,"CHG":0,"ABLFL":null,"TRT01A":"Xanomeline High Dose","TRT01AN":3,"SAFFL":"Y","ITTFL":"Y","EFFFL":"Y","COMPFL":"Y","SITEID":"701","AGE":72,"AGEGR1":"65-80","SEX":"F","RACE":"WHITE","ARMCD":"Xan_Hi","TRTSDT":"2013-02-04","TRTEDT":"2013-08-06"},{"STUDYID":"CDISCPILOT01","USUBJID":"01-701-1387","DOMAIN":"ADQS","PARAMCD":"NPTOT9","PARAM":"NPI-X 9-Domain Total Score","PARAMN":1,"AVISIT":"Baseline","AVISITN":0,"ADT":"2014-03-12","ADY":1,"AVAL":8,"BASE":8,"CHG":null,"ABLFL":"Y","TRT01A":"Placebo","TRT01AN":1,"SAFFL":"Y","ITTFL":"Y","EFFFL":"Y","COMPFL":"N","SITEID":"701","AGE":87,"AGEGR1":">80","SEX":"F","RACE":"WHITE","ARMCD":"Pbo","TRTSDT":"2014-03-12","TRTEDT":"2014-03-25"},{"STUDYID":"CDISCPILOT01","USUBJID":"01-701-1387","DOMAIN":"ADQS","PARAMCD":"NPTOT9","PARAM":"NPI-X 9-Domain Total Score","PARAMN":1,"AVISIT":"Week 2","AVISITN":2,"ADT":"2014-03-25","ADY":14,"AVAL":2,"BASE":8,"CHG":-6,"ABLFL":null,"TRT01A":"Placebo","TRT01AN":1,"SAFFL":"Y","ITTFL":"Y","EFFFL":"Y","COMPFL":"N","SITEID":"701","AGE":87,"AGEGR1":">80","SEX":"F","RACE":"WHITE","ARMCD":"Pbo","TRTSDT":"2014-03-12","TRTEDT":"2014-03-25"},{"STUDYID":"CDISCPILOT01","USUBJID":"01-701-1387","DOMAIN":"ADQS","PARAMCD":"NPTMN24","PARAM":"Mean NPI-X 9-Domain Total Score (Weeks 4-24)","PARAMN":2,"AVISIT":"Weeks 4-24 Mean","AVISITN":99,"ADT":null,"ADY":null,"AVAL":null,"BASE":8,"CHG":null,"ABLFL":null,"TRT01A":"Placebo","TRT01AN":1,"SAFFL":"Y","ITTFL":"Y","EFFFL":"Y","COMPFL":"N","SITEID":"701","AGE":87,"AGEGR1":">80","SEX":"F","RACE":"WHITE","ARMCD":"Pbo","TRTSDT":"2014-03-12","TRTEDT":"2014-03-25"},{"STUDYID":"CDISCPILOT01","USUBJID":"01-701-1392","DOMAIN":"ADQS","PARAMCD":"NPTOT9","PARAM":"NPI-X 9-Domain Total Score","PARAMN":1,"AVISIT":"Baseline","AVISITN":0,"ADT":"2012-10-28","ADY":1,"AVAL":0,"BASE":0,"CHG":null,"ABLFL":"Y","TRT01A":"Placebo","TRT01AN":1,"SAFFL":"Y","ITTFL":"Y","EFFFL":"Y","COMPFL":"Y","SITEID":"701","AGE":78,"AGEGR1":"65-80","SEX":"M","RACE":"WHITE","ARMCD":"Pbo","TRTSDT":"2012-10-28","TRTEDT":"2013-04-28"},{"STUDYID":"CDISCPILOT01","USUBJID":"01-701-1392","DOMAIN":"ADQS","PARAMCD":"NPTOT9","PARAM":"NPI-X 9-Domain Total Score","PARAMN":1,"AVISIT":"Week 2","AVISITN":2,"ADT":"2012-11-11","ADY":15,"AVAL":2,"BASE":0,"CHG":2,"ABLFL":null,"TRT01A":"Placebo","TRT01AN":1,"SAFFL":"Y","ITTFL":"Y","EFFFL":"Y","COMPFL":"Y","SITEID":"701","AGE":78,"AGEGR1":"65-80","SEX":"M","RACE":"WHITE","ARMCD":"Pbo","TRTSDT":"2012-10-28","TRTEDT":"2013-04-28"},{"STUDYID":"CDISCPILOT01","USUBJID":"01-701-1392","DOMAIN":"ADQS","PARAMCD":"NPTOT9","PARAM":"NPI-X 9-Domain Total Score","PARAMN":1,"AVISIT":"Week 4","AVISITN":4,"ADT":"2012-11-24","ADY":28,"AVAL":0,"BASE":0,"CHG":0,"ABLFL":null,"TRT01A":"Placebo","TRT01AN":1,"SAFFL":"Y","ITTFL":"Y","EFFFL":"Y","COMPFL":"Y","SITEID":"701","AGE":78,"AGEGR1":"65-80","SEX":"M","RACE":"WHITE","ARMCD":"Pbo","TRTSDT":"2012-10-28","TRTEDT":"2013-04-28"},{"STUDYID":"CDISCPILOT01","USUBJID":"01-701-1392","DOMAIN":"ADQS","PARAMCD":"NPTOT9","PARAM":"NPI-X 9-Domain Total Score","PARAMN":1,"AVISIT":"Week 6","AVISITN":6,"ADT":"2012-12-09","ADY":43,"AVAL":2,"BASE":0,"CHG":2,"ABLFL":null,"TRT01A":"Placebo","TRT01AN":1,"SAFFL":"Y","ITTFL":"Y","EFFFL":"Y","COMPFL":"Y","SITEID":"701","AGE":78,"AGEGR1":"65-80","SEX":"M","RACE":"WHITE","ARMCD":"Pbo","TRTSDT":"2012-10-28","TRTEDT":"2013-04-28"},{"STUDYID":"CDISCPILOT01","USUBJID":"01-701-1392","DOMAIN":"ADQS","PARAMCD":"NPTOT9","PARAM":"NPI-X 9-Domain Total Score","PARAMN":1,"AVISIT":"Week 8","AVISITN":8,"ADT":"2012-12-20","ADY":54,"AVAL":0,"BASE":0,"CHG":0,"ABLFL":null,"TRT01A":"Placebo","TRT01AN":1,"SAFFL":"Y","ITTFL":"Y","EFFFL":"Y","COMPFL":"Y","SITEID":"701","AGE":78,"AGEGR1":"65-80","SEX":"M","RACE":"WHITE","ARMCD":"Pbo","TRTSDT":"2012-10-28","TRTEDT":"2013-04-28"},{"STUDYID":"CDISCPILOT01","USUBJID":"01-701-1392","DOMAIN":"ADQS","PARAMCD":"NPTOT9","PARAM":"NPI-X 9-Domain Total Score","PARAMN":1,"AVISIT":"Week 10","AVISITN":10,"ADT":"2013-01-06","ADY":71,"AVAL":0,"BASE":0,"CHG":0,"ABLFL":null,"TRT01A":"Placebo","TRT01AN":1,"SAFFL":"Y","ITTFL":"Y","EFFFL":"Y","COMPFL":"Y","SITEID":"701","AGE":78,"AGEGR1":"65-80","SEX":"M","RACE":"WHITE","ARMCD":"Pbo","TRTSDT":"2012-10-28","TRTEDT":"2013-04-28"},{"STUDYID":"CDISCPILOT01","USUBJID":"01-701-1392","DOMAIN":"ADQS","PARAMCD":"NPTOT9","PARAM":"NPI-X 9-Domain Total Score","PARAMN":1,"AVISIT":"Week 12","AVISITN":12,"ADT":"2013-01-20","ADY":85,"AVAL":0,"BASE":0,"CHG":0,"ABLFL":null,"TRT01A":"Placebo","TRT01AN":1,"SAFFL":"Y","ITTFL":"Y","EFFFL":"Y","COMPFL":"Y","SITEID":"701","AGE":78,"AGEGR1":"65-80","SEX":"M","RACE":"WHITE","ARMCD":"Pbo","TRTSDT":"2012-10-28","TRTEDT":"2013-04-28"},{"STUDYID":"CDISCPILOT01","USUBJID":"01-701-1392","DOMAIN":"ADQS","PARAMCD":"NPTOT9","PARAM":"NPI-X 9-Domain Total Score","PARAMN":1,"AVISIT":"Week 14","AVISITN":14,"ADT":"2013-02-03","ADY":99,"AVAL":0,"BASE":0,"CHG":0,"ABLFL":null,"TRT01A":"Placebo","TRT01AN":1,"SAFFL":"Y","ITTFL":"Y","EFFFL":"Y","COMPFL":"Y","SITEID":"701","AGE":78,"AGEGR1":"65-80","SEX":"M","RACE":"WHITE","ARMCD":"Pbo","TRTSDT":"2012-10-28","TRTEDT":"2013-04-28"},{"STUDYID":"CDISCPILOT01","USUBJID":"01-701-1392","DOMAIN":"ADQS","PARAMCD":"NPTOT9","PARAM":"NPI-X 9-Domain Total Score","PARAMN":1,"AVISIT":"Week 16","AVISITN":16,"ADT":"2013-02-17","ADY":113,"AVAL":1,"BASE":0,"CHG":1,"ABLFL":null,"TRT01A":"Placebo","TRT01AN":1,"SAFFL":"Y","ITTFL":"Y","EFFFL":"Y","COMPFL":"Y","SITEID":"701","AGE":78,"AGEGR1":"65-80","SEX":"M","RACE":"WHITE","ARMCD":"Pbo","TRTSDT":"2012-10-28","TRTEDT":"2013-04-28"},{"STUDYID":"CDISCPILOT01","USUBJID":"01-701-1392","DOMAIN":"ADQS","PARAMCD":"NPTOT9","PARAM":"NPI-X 9-Domain Total Score","PARAMN":1,"AVISIT":"Week 18","AVISITN":18,"ADT":"2013-03-03","ADY":127,"AVAL":0,"BASE":0,"CHG":0,"ABLFL":null,"TRT01A":"Placebo","TRT01AN":1,"SAFFL":"Y","ITTFL":"Y","EFFFL":"Y","COMPFL":"Y","SITEID":"701","AGE":78,"AGEGR1":"65-80","SEX":"M","RACE":"WHITE","ARMCD":"Pbo","TRTSDT":"2012-10-28","TRTEDT":"2013-04-28"},{"STUDYID":"CDISCPILOT01","USUBJID":"01-701-1392","DOMAIN":"ADQS","PARAMCD":"NPTOT9","PARAM":"NPI-X 9-Domain Total Score","PARAMN":1,"AVISIT":"Week 20","AVISITN":20,"ADT":"2013-03-17","ADY":141,"AVAL":0,"BASE":0,"CHG":0,"ABLFL":null,"TRT01A":"Placebo","TRT01AN":1,"SAFFL":"Y","ITTFL":"Y","EFFFL":"Y","COMPFL":"Y","SITEID":"701","AGE":78,"AGEGR1":"65-80","SEX":"M","RACE":"WHITE","ARMCD":"Pbo","TRTSDT":"2012-10-28","TRTEDT":"2013-04-28"},{"STUDYID":"CDISCPILOT01","USUBJID":"01-701-1392","DOMAIN":"ADQS","PARAMCD":"NPTOT9","PARAM":"NPI-X 9-Domain Total Score","PARAMN":1,"AVISIT":"Week 22","AVISITN":22,"ADT":"2013-03-31","ADY":155,"AVAL":0,"BASE":0,"CHG":0,"ABLFL":null,"TRT01A":"Placebo","TRT01AN":1,"SAFFL":"Y","ITTFL":"Y","EFFFL":"Y","COMPFL":"Y","SITEID":"701","AGE":78,"AGEGR1":"65-80","SEX":"M","RACE":"WHITE","ARMCD":"Pbo","TRTSDT":"2012-10-28","TRTEDT":"2013-04-28"},{"STUDYID":"CDISCPILOT01","USUBJID":"01-701-1392","DOMAIN":"ADQS","PARAMCD":"NPTOT9","PARAM":"NPI-X 9-Domain Total Score","PARAMN":1,"AVISIT":"Week 24","AVISITN":24,"ADT":"2013-04-15","ADY":170,"AVAL":0,"BASE":0,"CHG":0,"ABLFL":null,"TRT01A":"Placebo","TRT01AN":1,"SAFFL":"Y","ITTFL":"Y","EFFFL":"Y","COMPFL":"Y","SITEID":"701","AGE":78,"AGEGR1":"65-80","SEX":"M","RACE":"WHITE","ARMCD":"Pbo","TRTSDT":"2012-10-28","TRTEDT":"2013-04-28"},{"STUDYID":"CDISCPILOT01","USUBJID":"01-701-1392","DOMAIN":"ADQS","PARAMCD":"NPTMN24","PARAM":"Mean NPI-X 9-Domain Total Score (Weeks 4-24)","PARAMN":2,"AVISIT":"Weeks 4-24 Mean","AVISITN":99,"ADT":null,"ADY":null,"AVAL":0.2727,"BASE":0,"CHG":0.2727,"ABLFL":null,"TRT01A":"Placebo","TRT01AN":1,"SAFFL":"Y","ITTFL":"Y","EFFFL":"Y","COMPFL":"Y","SITEID":"701","AGE":78,"AGEGR1":"65-80","SEX":"M","RACE":"WHITE","ARMCD":"Pbo","TRTSDT":"2012-10-28","TRTEDT":"2013-04-28"},{"STUDYID":"CDISCPILOT01","USUBJID":"01-701-1415","DOMAIN":"ADQS","PARAMCD":"NPTOT9","PARAM":"NPI-X 9-Domain Total Score","PARAMN":1,"AVISIT":"Baseline","AVISITN":0,"ADT":"2013-09-23","ADY":1,"AVAL":4,"BASE":4,"CHG":null,"ABLFL":"Y","TRT01A":"Placebo","TRT01AN":1,"SAFFL":"Y","ITTFL":"Y","EFFFL":"Y","COMPFL":"Y","SITEID":"701","AGE":85,"AGEGR1":">80","SEX":"M","RACE":"WHITE","ARMCD":"Pbo","TRTSDT":"2013-09-23","TRTEDT":"2014-03-24"},{"STUDYID":"CDISCPILOT01","USUBJID":"01-701-1415","DOMAIN":"ADQS","PARAMCD":"NPTOT9","PARAM":"NPI-X 9-Domain Total Score","PARAMN":1,"AVISIT":"Week 2","AVISITN":2,"ADT":"2013-10-07","ADY":15,"AVAL":4,"BASE":4,"CHG":0,"ABLFL":null,"TRT01A":"Placebo","TRT01AN":1,"SAFFL":"Y","ITTFL":"Y","EFFFL":"Y","COMPFL":"Y","SITEID":"701","AGE":85,"AGEGR1":">80","SEX":"M","RACE":"WHITE","ARMCD":"Pbo","TRTSDT":"2013-09-23","TRTEDT":"2014-03-24"},{"STUDYID":"CDISCPILOT01","USUBJID":"01-701-1415","DOMAIN":"ADQS","PARAMCD":"NPTOT9","PARAM":"NPI-X 9-Domain Total Score","PARAMN":1,"AVISIT":"Week 4","AVISITN":4,"ADT":"2013-10-20","ADY":28,"AVAL":7,"BASE":4,"CHG":3,"ABLFL":null,"TRT01A":"Placebo","TRT01AN":1,"SAFFL":"Y","ITTFL":"Y","EFFFL":"Y","COMPFL":"Y","SITEID":"701","AGE":85,"AGEGR1":">80","SEX":"M","RACE":"WHITE","ARMCD":"Pbo","TRTSDT":"2013-09-23","TRTEDT":"2014-03-24"},{"STUDYID":"CDISCPILOT01","USUBJID":"01-701-1415","DOMAIN":"ADQS","PARAMCD":"NPTOT9","PARAM":"NPI-X 9-Domain Total Score","PARAMN":1,"AVISIT":"Week 6","AVISITN":6,"ADT":"2013-11-04","ADY":43,"AVAL":1,"BASE":4,"CHG":-3,"ABLFL":null,"TRT01A":"Placebo","TRT01AN":1,"SAFFL":"Y","ITTFL":"Y","EFFFL":"Y","COMPFL":"Y","SITEID":"701","AGE":85,"AGEGR1":">80","SEX":"M","RACE":"WHITE","ARMCD":"Pbo","TRTSDT":"2013-09-23","TRTEDT":"2014-03-24"},{"STUDYID":"CDISCPILOT01","USUBJID":"01-701-1415","DOMAIN":"ADQS","PARAMCD":"NPTOT9","PARAM":"NPI-X 9-Domain Total Score","PARAMN":1,"AVISIT":"Week 8","AVISITN":8,"ADT":"2013-11-21","ADY":60,"AVAL":9,"BASE":4,"CHG":5,"ABLFL":null,"TRT01A":"Placebo","TRT01AN":1,"SAFFL":"Y","ITTFL":"Y","EFFFL":"Y","COMPFL":"Y","SITEID":"701","AGE":85,"AGEGR1":">80","SEX":"M","RACE":"WHITE","ARMCD":"Pbo","TRTSDT":"2013-09-23","TRTEDT":"2014-03-24"},{"STUDYID":"CDISCPILOT01","USUBJID":"01-701-1415","DOMAIN":"ADQS","PARAMCD":"NPTOT9","PARAM":"NPI-X 9-Domain Total Score","PARAMN":1,"AVISIT":"Week 10","AVISITN":10,"ADT":"2013-12-02","ADY":71,"AVAL":0,"BASE":4,"CHG":-4,"ABLFL":null,"TRT01A":"Placebo","TRT01AN":1,"SAFFL":"Y","ITTFL":"Y","EFFFL":"Y","COMPFL":"Y","SITEID":"701","AGE":85,"AGEGR1":">80","SEX":"M","RACE":"WHITE","ARMCD":"Pbo","TRTSDT":"2013-09-23","TRTEDT":"2014-03-24"},{"STUDYID":"CDISCPILOT01","USUBJID":"01-701-1415","DOMAIN":"ADQS","PARAMCD":"NPTOT9","PARAM":"NPI-X 9-Domain Total Score","PARAMN":1,"AVISIT":"Week 12","AVISITN":12,"ADT":"2013-12-21","ADY":90,"AVAL":0,"BASE":4,"CHG":-4,"ABLFL":null,"TRT01A":"Placebo","TRT01AN":1,"SAFFL":"Y","ITTFL":"Y","EFFFL":"Y","COMPFL":"Y","SITEID":"701","AGE":85,"AGEGR1":">80","SEX":"M","RACE":"WHITE","ARMCD":"Pbo","TRTSDT":"2013-09-23","TRTEDT":"2014-03-24"},{"STUDYID":"CDISCPILOT01","USUBJID":"01-701-1415","DOMAIN":"ADQS","PARAMCD":"NPTOT9","PARAM":"NPI-X 9-Domain Total Score","PARAMN":1,"AVISIT":"Week 14","AVISITN":14,"ADT":"2013-12-30","ADY":99,"AVAL":5,"BASE":4,"CHG":1,"ABLFL":null,"TRT01A":"Placebo","TRT01AN":1,"SAFFL":"Y","ITTFL":"Y","EFFFL":"Y","COMPFL":"Y","SITEID":"701","AGE":85,"AGEGR1":">80","SEX":"M","RACE":"WHITE","ARMCD":"Pbo","TRTSDT":"2013-09-23","TRTEDT":"2014-03-24"},{"STUDYID":"CDISCPILOT01","USUBJID":"01-701-1415","DOMAIN":"ADQS","PARAMCD":"NPTOT9","PARAM":"NPI-X 9-Domain Total Score","PARAMN":1,"AVISIT":"Week 16","AVISITN":16,"ADT":"2014-01-14","ADY":114,"AVAL":8,"BASE":4,"CHG":4,"ABLFL":null,"TRT01A":"Placebo","TRT01AN":1,"SAFFL":"Y","ITTFL":"Y","EFFFL":"Y","COMPFL":"Y","SITEID":"701","AGE":85,"AGEGR1":">80","SEX":"M","RACE":"WHITE","ARMCD":"Pbo","TRTSDT":"2013-09-23","TRTEDT":"2014-03-24"},{"STUDYID":"CDISCPILOT01","USUBJID":"01-701-1415","DOMAIN":"ADQS","PARAMCD":"NPTOT9","PARAM":"NPI-X 9-Domain Total Score","PARAMN":1,"AVISIT":"Week 18","AVISITN":18,"ADT":"2014-01-27","ADY":127,"AVAL":1,"BASE":4,"CHG":-3,"ABLFL":null,"TRT01A":"Placebo","TRT01AN":1,"SAFFL":"Y","ITTFL":"Y","EFFFL":"Y","COMPFL":"Y","SITEID":"701","AGE":85,"AGEGR1":">80","SEX":"M","RACE":"WHITE","ARMCD":"Pbo","TRTSDT":"2013-09-23","TRTEDT":"2014-03-24"},{"STUDYID":"CDISCPILOT01","USUBJID":"01-701-1415","DOMAIN":"ADQS","PARAMCD":"NPTOT9","PARAM":"NPI-X 9-Domain Total Score","PARAMN":1,"AVISIT":"Week 20","AVISITN":20,"ADT":"2014-02-10","ADY":141,"AVAL":0,"BASE":4,"CHG":-4,"ABLFL":null,"TRT01A":"Placebo","TRT01AN":1,"SAFFL":"Y","ITTFL":"Y","EFFFL":"Y","COMPFL":"Y","SITEID":"701","AGE":85,"AGEGR1":">80","SEX":"M","RACE":"WHITE","ARMCD":"Pbo","TRTSDT":"2013-09-23","TRTEDT":"2014-03-24"},{"STUDYID":"CDISCPILOT01","USUBJID":"01-701-1415","DOMAIN":"ADQS","PARAMCD":"NPTOT9","PARAM":"NPI-X 9-Domain Total Score","PARAMN":1,"AVISIT":"Week 22","AVISITN":22,"ADT":"2014-02-24","ADY":155,"AVAL":0,"BASE":4,"CHG":-4,"ABLFL":null,"TRT01A":"Placebo","TRT01AN":1,"SAFFL":"Y","ITTFL":"Y","EFFFL":"Y","COMPFL":"Y","SITEID":"701","AGE":85,"AGEGR1":">80","SEX":"M","RACE":"WHITE","ARMCD":"Pbo","TRTSDT":"2013-09-23","TRTEDT":"2014-03-24"},{"STUDYID":"CDISCPILOT01","USUBJID":"01-701-1415","DOMAIN":"ADQS","PARAMCD":"NPTOT9","PARAM":"NPI-X 9-Domain Total Score","PARAMN":1,"AVISIT":"Week 24","AVISITN":24,"ADT":"2014-03-10","ADY":169,"AVAL":3,"BASE":4,"CHG":-1,"ABLFL":null,"TRT01A":"Placebo","TRT01AN":1,"SAFFL":"Y","ITTFL":"Y","EFFFL":"Y","COMPFL":"Y","SITEID":"701","AGE":85,"AGEGR1":">80","SEX":"M","RACE":"WHITE","ARMCD":"Pbo","TRTSDT":"2013-09-23","TRTEDT":"2014-03-24"},{"STUDYID":"CDISCPILOT01","USUBJID":"01-701-1415","DOMAIN":"ADQS","PARAMCD":"NPTMN24","PARAM":"Mean NPI-X 9-Domain Total Score (Weeks 4-24)","PARAMN":2,"AVISIT":"Weeks 4-24 Mean","AVISITN":99,"ADT":null,"ADY":null,"AVAL":3.0909,"BASE":4,"CHG":-0.9091,"ABLFL":null,"TRT01A":"Placebo","TRT01AN":1,"SAFFL":"Y","ITTFL":"Y","EFFFL":"Y","COMPFL":"Y","SITEID":"701","AGE":85,"AGEGR1":">80","SEX":"M","RACE":"WHITE","ARMCD":"Pbo","TRTSDT":"2013-09-23","TRTEDT":"2014-03-24"},{"STUDYID":"CDISCPILOT01","USUBJID":"01-701-1429","DOMAIN":"ADQS","PARAMCD":"NPTOT9","PARAM":"NPI-X 9-Domain Total Score","PARAMN":1,"AVISIT":"Baseline","AVISITN":0,"ADT":"2013-03-19","ADY":1,"AVAL":0,"BASE":0,"CHG":null,"ABLFL":"Y","TRT01A":"Xanomeline Low Dose","TRT01AN":2,"SAFFL":"Y","ITTFL":"Y","EFFFL":"Y","COMPFL":"N","SITEID":"701","AGE":84,"AGEGR1":">80","SEX":"F","RACE":"WHITE","ARMCD":"Xan_Lo","TRTSDT":"2013-03-19","TRTEDT":"2013-04-30"},{"STUDYID":"CDISCPILOT01","USUBJID":"01-701-1429","DOMAIN":"ADQS","PARAMCD":"NPTOT9","PARAM":"NPI-X 9-Domain Total Score","PARAMN":1,"AVISIT":"Week 2","AVISITN":2,"ADT":"2013-04-02","ADY":15,"AVAL":0,"BASE":0,"CHG":0,"ABLFL":null,"TRT01A":"Xanomeline Low Dose","TRT01AN":2,"SAFFL":"Y","ITTFL":"Y","EFFFL":"Y","COMPFL":"N","SITEID":"701","AGE":84,"AGEGR1":">80","SEX":"F","RACE":"WHITE","ARMCD":"Xan_Lo","TRTSDT":"2013-03-19","TRTEDT":"2013-04-30"},{"STUDYID":"CDISCPILOT01","USUBJID":"01-701-1429","DOMAIN":"ADQS","PARAMCD":"NPTOT9","PARAM":"NPI-X 9-Domain Total Score","PARAMN":1,"AVISIT":"Week 4","AVISITN":4,"ADT":"2013-04-16","ADY":29,"AVAL":0,"BASE":0,"CHG":0,"ABLFL":null,"TRT01A":"Xanomeline Low Dose","TRT01AN":2,"SAFFL":"Y","ITTFL":"Y","EFFFL":"Y","COMPFL":"N","SITEID":"701","AGE":84,"AGEGR1":">80","SEX":"F","RACE":"WHITE","ARMCD":"Xan_Lo","TRTSDT":"2013-03-19","TRTEDT":"2013-04-30"},{"STUDYID":"CDISCPILOT01","USUBJID":"01-701-1429","DOMAIN":"ADQS","PARAMCD":"NPTOT9","PARAM":"NPI-X 9-Domain Total Score","PARAMN":1,"AVISIT":"Week 6","AVISITN":6,"ADT":"2013-04-30","ADY":43,"AVAL":0,"BASE":0,"CHG":0,"ABLFL":null,"TRT01A":"Xanomeline Low Dose","TRT01AN":2,"SAFFL":"Y","ITTFL":"Y","EFFFL":"Y","COMPFL":"N","SITEID":"701","AGE":84,"AGEGR1":">80","SEX":"F","RACE":"WHITE","ARMCD":"Xan_Lo","TRTSDT":"2013-03-19","TRTEDT":"2013-04-30"},{"STUDYID":"CDISCPILOT01","USUBJID":"01-701-1429","DOMAIN":"ADQS","PARAMCD":"NPTMN24","PARAM":"Mean NPI-X 9-Domain Total Score (Weeks 4-24)","PARAMN":2,"AVISIT":"Weeks 4-24 Mean","AVISITN":99,"ADT":null,"ADY":null,"AVAL":0,"BASE":0,"CHG":0,"ABLFL":null,"TRT01A":"Xanomeline Low Dose","TRT01AN":2,"SAFFL":"Y","ITTFL":"Y","EFFFL":"Y","COMPFL":"N","SITEID":"701","AGE":84,"AGEGR1":">80","SEX":"F","RACE":"WHITE","ARMCD":"Xan_Lo","TRTSDT":"2013-03-19","TRTEDT":"2013-04-30"},{"STUDYID":"CDISCPILOT01","USUBJID":"01-701-1440","DOMAIN":"ADQS","PARAMCD":"NPTOT9","PARAM":"NPI-X 9-Domain Total Score","PARAMN":1,"AVISIT":"Baseline","AVISITN":0,"ADT":"2013-08-08","ADY":1,"AVAL":12,"BASE":12,"CHG":null,"ABLFL":"Y","TRT01A":"Placebo","TRT01AN":1,"SAFFL":"Y","ITTFL":"Y","EFFFL":"Y","COMPFL":"Y","SITEID":"701","AGE":70,"AGEGR1":"65-80","SEX":"M","RACE":"WHITE","ARMCD":"Pbo","TRTSDT":"2013-08-08","TRTEDT":"2014-02-05"},{"STUDYID":"CDISCPILOT01","USUBJID":"01-701-1440","DOMAIN":"ADQS","PARAMCD":"NPTOT9","PARAM":"NPI-X 9-Domain Total Score","PARAMN":1,"AVISIT":"Week 2","AVISITN":2,"ADT":"2013-08-23","ADY":16,"AVAL":9,"BASE":12,"CHG":-3,"ABLFL":null,"TRT01A":"Placebo","TRT01AN":1,"SAFFL":"Y","ITTFL":"Y","EFFFL":"Y","COMPFL":"Y","SITEID":"701","AGE":70,"AGEGR1":"65-80","SEX":"M","RACE":"WHITE","ARMCD":"Pbo","TRTSDT":"2013-08-08","TRTEDT":"2014-02-05"},{"STUDYID":"CDISCPILOT01","USUBJID":"01-701-1440","DOMAIN":"ADQS","PARAMCD":"NPTOT9","PARAM":"NPI-X 9-Domain Total Score","PARAMN":1,"AVISIT":"Week 4","AVISITN":4,"ADT":"2013-09-04","ADY":28,"AVAL":17,"BASE":12,"CHG":5,"ABLFL":null,"TRT01A":"Placebo","TRT01AN":1,"SAFFL":"Y","ITTFL":"Y","EFFFL":"Y","COMPFL":"Y","SITEID":"701","AGE":70,"AGEGR1":"65-80","SEX":"M","RACE":"WHITE","ARMCD":"Pbo","TRTSDT":"2013-08-08","TRTEDT":"2014-02-05"},{"STUDYID":"CDISCPILOT01","USUBJID":"01-701-1440","DOMAIN":"ADQS","PARAMCD":"NPTOT9","PARAM":"NPI-X 9-Domain Total Score","PARAMN":1,"AVISIT":"Week 6","AVISITN":6,"ADT":"2013-09-22","ADY":46,"AVAL":14,"BASE":12,"CHG":2,"ABLFL":null,"TRT01A":"Placebo","TRT01AN":1,"SAFFL":"Y","ITTFL":"Y","EFFFL":"Y","COMPFL":"Y","SITEID":"701","AGE":70,"AGEGR1":"65-80","SEX":"M","RACE":"WHITE","ARMCD":"Pbo","TRTSDT":"2013-08-08","TRTEDT":"2014-02-05"},{"STUDYID":"CDISCPILOT01","USUBJID":"01-701-1440","DOMAIN":"ADQS","PARAMCD":"NPTOT9","PARAM":"NPI-X 9-Domain Total Score","PARAMN":1,"AVISIT":"Week 8","AVISITN":8,"ADT":"2013-10-03","ADY":57,"AVAL":14,"BASE":12,"CHG":2,"ABLFL":null,"TRT01A":"Placebo","TRT01AN":1,"SAFFL":"Y","ITTFL":"Y","EFFFL":"Y","COMPFL":"Y","SITEID":"701","AGE":70,"AGEGR1":"65-80","SEX":"M","RACE":"WHITE","ARMCD":"Pbo","TRTSDT":"2013-08-08","TRTEDT":"2014-02-05"},{"STUDYID":"CDISCPILOT01","USUBJID":"01-701-1440","DOMAIN":"ADQS","PARAMCD":"NPTOT9","PARAM":"NPI-X 9-Domain Total Score","PARAMN":1,"AVISIT":"Week 10","AVISITN":10,"ADT":"2013-10-17","ADY":71,"AVAL":14,"BASE":12,"CHG":2,"ABLFL":null,"TRT01A":"Placebo","TRT01AN":1,"SAFFL":"Y","ITTFL":"Y","EFFFL":"Y","COMPFL":"Y","SITEID":"701","AGE":70,"AGEGR1":"65-80","SEX":"M","RACE":"WHITE","ARMCD":"Pbo","TRTSDT":"2013-08-08","TRTEDT":"2014-02-05"},{"STUDYID":"CDISCPILOT01","USUBJID":"01-701-1440","DOMAIN":"ADQS","PARAMCD":"NPTOT9","PARAM":"NPI-X 9-Domain Total Score","PARAMN":1,"AVISIT":"Week 12","AVISITN":12,"ADT":"2013-10-31","ADY":85,"AVAL":13,"BASE":12,"CHG":1,"ABLFL":null,"TRT01A":"Placebo","TRT01AN":1,"SAFFL":"Y","ITTFL":"Y","EFFFL":"Y","COMPFL":"Y","SITEID":"701","AGE":70,"AGEGR1":"65-80","SEX":"M","RACE":"WHITE","ARMCD":"Pbo","TRTSDT":"2013-08-08","TRTEDT":"2014-02-05"},{"STUDYID":"CDISCPILOT01","USUBJID":"01-701-1440","DOMAIN":"ADQS","PARAMCD":"NPTOT9","PARAM":"NPI-X 9-Domain Total Score","PARAMN":1,"AVISIT":"Week 14","AVISITN":14,"ADT":"2013-11-14","ADY":99,"AVAL":12,"BASE":12,"CHG":0,"ABLFL":null,"TRT01A":"Placebo","TRT01AN":1,"SAFFL":"Y","ITTFL":"Y","EFFFL":"Y","COMPFL":"Y","SITEID":"701","AGE":70,"AGEGR1":"65-80","SEX":"M","RACE":"WHITE","ARMCD":"Pbo","TRTSDT":"2013-08-08","TRTEDT":"2014-02-05"},{"STUDYID":"CDISCPILOT01","USUBJID":"01-701-1440","DOMAIN":"ADQS","PARAMCD":"NPTOT9","PARAM":"NPI-X 9-Domain Total Score","PARAMN":1,"AVISIT":"Week 16","AVISITN":16,"ADT":"2013-11-27","ADY":112,"AVAL":12,"BASE":12,"CHG":0,"ABLFL":null,"TRT01A":"Placebo","TRT01AN":1,"SAFFL":"Y","ITTFL":"Y","EFFFL":"Y","COMPFL":"Y","SITEID":"701","AGE":70,"AGEGR1":"65-80","SEX":"M","RACE":"WHITE","ARMCD":"Pbo","TRTSDT":"2013-08-08","TRTEDT":"2014-02-05"},{"STUDYID":"CDISCPILOT01","USUBJID":"01-701-1440","DOMAIN":"ADQS","PARAMCD":"NPTOT9","PARAM":"NPI-X 9-Domain Total Score","PARAMN":1,"AVISIT":"Week 18","AVISITN":18,"ADT":"2013-12-12","ADY":127,"AVAL":12,"BASE":12,"CHG":0,"ABLFL":null,"TRT01A":"Placebo","TRT01AN":1,"SAFFL":"Y","ITTFL":"Y","EFFFL":"Y","COMPFL":"Y","SITEID":"701","AGE":70,"AGEGR1":"65-80","SEX":"M","RACE":"WHITE","ARMCD":"Pbo","TRTSDT":"2013-08-08","TRTEDT":"2014-02-05"},{"STUDYID":"CDISCPILOT01","USUBJID":"01-701-1440","DOMAIN":"ADQS","PARAMCD":"NPTOT9","PARAM":"NPI-X 9-Domain Total Score","PARAMN":1,"AVISIT":"Week 20","AVISITN":20,"ADT":"2013-12-25","ADY":140,"AVAL":8,"BASE":12,"CHG":-4,"ABLFL":null,"TRT01A":"Placebo","TRT01AN":1,"SAFFL":"Y","ITTFL":"Y","EFFFL":"Y","COMPFL":"Y","SITEID":"701","AGE":70,"AGEGR1":"65-80","SEX":"M","RACE":"WHITE","ARMCD":"Pbo","TRTSDT":"2013-08-08","TRTEDT":"2014-02-05"},{"STUDYID":"CDISCPILOT01","USUBJID":"01-701-1440","DOMAIN":"ADQS","PARAMCD":"NPTOT9","PARAM":"NPI-X 9-Domain Total Score","PARAMN":1,"AVISIT":"Week 22","AVISITN":22,"ADT":"2014-01-08","ADY":154,"AVAL":10,"BASE":12,"CHG":-2,"ABLFL":null,"TRT01A":"Placebo","TRT01AN":1,"SAFFL":"Y","ITTFL":"Y","EFFFL":"Y","COMPFL":"Y","SITEID":"701","AGE":70,"AGEGR1":"65-80","SEX":"M","RACE":"WHITE","ARMCD":"Pbo","TRTSDT":"2013-08-08","TRTEDT":"2014-02-05"},{"STUDYID":"CDISCPILOT01","USUBJID":"01-701-1440","DOMAIN":"ADQS","PARAMCD":"NPTOT9","PARAM":"NPI-X 9-Domain Total Score","PARAMN":1,"AVISIT":"Week 24","AVISITN":24,"ADT":"2014-01-22","ADY":168,"AVAL":16,"BASE":12,"CHG":4,"ABLFL":null,"TRT01A":"Placebo","TRT01AN":1,"SAFFL":"Y","ITTFL":"Y","EFFFL":"Y","COMPFL":"Y","SITEID":"701","AGE":70,"AGEGR1":"65-80","SEX":"M","RACE":"WHITE","ARMCD":"Pbo","TRTSDT":"2013-08-08","TRTEDT":"2014-02-05"},{"STUDYID":"CDISCPILOT01","USUBJID":"01-701-1440","DOMAIN":"ADQS","PARAMCD":"NPTMN24","PARAM":"Mean NPI-X 9-Domain Total Score (Weeks 4-24)","PARAMN":2,"AVISIT":"Weeks 4-24 Mean","AVISITN":99,"ADT":null,"ADY":null,"AVAL":12.9091,"BASE":12,"CHG":0.9091,"ABLFL":null,"TRT01A":"Placebo","TRT01AN":1,"SAFFL":"Y","ITTFL":"Y","EFFFL":"Y","COMPFL":"Y","SITEID":"701","AGE":70,"AGEGR1":"65-80","SEX":"M","RACE":"WHITE","ARMCD":"Pbo","TRTSDT":"2013-08-08","TRTEDT":"2014-02-05"},{"STUDYID":"CDISCPILOT01","USUBJID":"01-701-1442","DOMAIN":"ADQS","PARAMCD":"NPTOT9","PARAM":"NPI-X 9-Domain Total Score","PARAMN":1,"AVISIT":"Baseline","AVISITN":0,"ADT":"2013-10-26","ADY":1,"AVAL":2,"BASE":2,"CHG":null,"ABLFL":"Y","TRT01A":"Xanomeline Low Dose","TRT01AN":2,"SAFFL":"Y","ITTFL":"Y","EFFFL":"Y","COMPFL":"Y","SITEID":"701","AGE":57,"AGEGR1":"<65","SEX":"F","RACE":"BLACK OR AFRICAN AMERICAN","ARMCD":"Xan_Lo","TRTSDT":"2013-10-26","TRTEDT":"2014-04-26"},{"STUDYID":"CDISCPILOT01","USUBJID":"01-701-1442","DOMAIN":"ADQS","PARAMCD":"NPTOT9","PARAM":"NPI-X 9-Domain Total Score","PARAMN":1,"AVISIT":"Week 2","AVISITN":2,"ADT":"2013-11-09","ADY":15,"AVAL":0,"BASE":2,"CHG":-2,"ABLFL":null,"TRT01A":"Xanomeline Low Dose","TRT01AN":2,"SAFFL":"Y","ITTFL":"Y","EFFFL":"Y","COMPFL":"Y","SITEID":"701","AGE":57,"AGEGR1":"<65","SEX":"F","RACE":"BLACK OR AFRICAN AMERICAN","ARMCD":"Xan_Lo","TRTSDT":"2013-10-26","TRTEDT":"2014-04-26"},{"STUDYID":"CDISCPILOT01","USUBJID":"01-701-1442","DOMAIN":"ADQS","PARAMCD":"NPTOT9","PARAM":"NPI-X 9-Domain Total Score","PARAMN":1,"AVISIT":"Week 4","AVISITN":4,"ADT":"2013-11-23","ADY":29,"AVAL":2,"BASE":2,"CHG":0,"ABLFL":null,"TRT01A":"Xanomeline Low Dose","TRT01AN":2,"SAFFL":"Y","ITTFL":"Y","EFFFL":"Y","COMPFL":"Y","SITEID":"701","AGE":57,"AGEGR1":"<65","SEX":"F","RACE":"BLACK OR AFRICAN AMERICAN","ARMCD":"Xan_Lo","TRTSDT":"2013-10-26","TRTEDT":"2014-04-26"},{"STUDYID":"CDISCPILOT01","USUBJID":"01-701-1442","DOMAIN":"ADQS","PARAMCD":"NPTOT9","PARAM":"NPI-X 9-Domain Total Score","PARAMN":1,"AVISIT":"Week 6","AVISITN":6,"ADT":"2013-12-07","ADY":43,"AVAL":2,"BASE":2,"CHG":0,"ABLFL":null,"TRT01A":"Xanomeline Low Dose","TRT01AN":2,"SAFFL":"Y","ITTFL":"Y","EFFFL":"Y","COMPFL":"Y","SITEID":"701","AGE":57,"AGEGR1":"<65","SEX":"F","RACE":"BLACK OR AFRICAN AMERICAN","ARMCD":"Xan_Lo","TRTSDT":"2013-10-26","TRTEDT":"2014-04-26"},{"STUDYID":"CDISCPILOT01","USUBJID":"01-701-1442","DOMAIN":"ADQS","PARAMCD":"NPTOT9","PARAM":"NPI-X 9-Domain Total Score","PARAMN":1,"AVISIT":"Week 8","AVISITN":8,"ADT":"2013-12-26","ADY":62,"AVAL":0,"BASE":2,"CHG":-2,"ABLFL":null,"TRT01A":"Xanomeline Low Dose","TRT01AN":2,"SAFFL":"Y","ITTFL":"Y","EFFFL":"Y","COMPFL":"Y","SITEID":"701","AGE":57,"AGEGR1":"<65","SEX":"F","RACE":"BLACK OR AFRICAN AMERICAN","ARMCD":"Xan_Lo","TRTSDT":"2013-10-26","TRTEDT":"2014-04-26"},{"STUDYID":"CDISCPILOT01","USUBJID":"01-701-1442","DOMAIN":"ADQS","PARAMCD":"NPTOT9","PARAM":"NPI-X 9-Domain Total Score","PARAMN":1,"AVISIT":"Week 10","AVISITN":10,"ADT":"2014-01-04","ADY":71,"AVAL":0,"BASE":2,"CHG":-2,"ABLFL":null,"TRT01A":"Xanomeline Low Dose","TRT01AN":2,"SAFFL":"Y","ITTFL":"Y","EFFFL":"Y","COMPFL":"Y","SITEID":"701","AGE":57,"AGEGR1":"<65","SEX":"F","RACE":"BLACK OR AFRICAN AMERICAN","ARMCD":"Xan_Lo","TRTSDT":"2013-10-26","TRTEDT":"2014-04-26"},{"STUDYID":"CDISCPILOT01","USUBJID":"01-701-1442","DOMAIN":"ADQS","PARAMCD":"NPTOT9","PARAM":"NPI-X 9-Domain Total Score","PARAMN":1,"AVISIT":"Week 12","AVISITN":12,"ADT":"2014-01-18","ADY":85,"AVAL":0,"BASE":2,"CHG":-2,"ABLFL":null,"TRT01A":"Xanomeline Low Dose","TRT01AN":2,"SAFFL":"Y","ITTFL":"Y","EFFFL":"Y","COMPFL":"Y","SITEID":"701","AGE":57,"AGEGR1":"<65","SEX":"F","RACE":"BLACK OR AFRICAN AMERICAN","ARMCD":"Xan_Lo","TRTSDT":"2013-10-26","TRTEDT":"2014-04-26"},{"STUDYID":"CDISCPILOT01","USUBJID":"01-701-1442","DOMAIN":"ADQS","PARAMCD":"NPTOT9","PARAM":"NPI-X 9-Domain Total Score","PARAMN":1,"AVISIT":"Week 14","AVISITN":14,"ADT":"2014-02-01","ADY":99,"AVAL":0,"BASE":2,"CHG":-2,"ABLFL":null,"TRT01A":"Xanomeline Low Dose","TRT01AN":2,"SAFFL":"Y","ITTFL":"Y","EFFFL":"Y","COMPFL":"Y","SITEID":"701","AGE":57,"AGEGR1":"<65","SEX":"F","RACE":"BLACK OR AFRICAN AMERICAN","ARMCD":"Xan_Lo","TRTSDT":"2013-10-26","TRTEDT":"2014-04-26"},{"STUDYID":"CDISCPILOT01","USUBJID":"01-701-1442","DOMAIN":"ADQS","PARAMCD":"NPTOT9","PARAM":"NPI-X 9-Domain Total Score","PARAMN":1,"AVISIT":"Week 16","AVISITN":16,"ADT":"2014-02-15","ADY":113,"AVAL":0,"BASE":2,"CHG":-2,"ABLFL":null,"TRT01A":"Xanomeline Low Dose","TRT01AN":2,"SAFFL":"Y","ITTFL":"Y","EFFFL":"Y","COMPFL":"Y","SITEID":"701","AGE":57,"AGEGR1":"<65","SEX":"F","RACE":"BLACK OR AFRICAN AMERICAN","ARMCD":"Xan_Lo","TRTSDT":"2013-10-26","TRTEDT":"2014-04-26"},{"STUDYID":"CDISCPILOT01","USUBJID":"01-701-1442","DOMAIN":"ADQS","PARAMCD":"NPTOT9","PARAM":"NPI-X 9-Domain Total Score","PARAMN":1,"AVISIT":"Week 18","AVISITN":18,"ADT":"2014-03-01","ADY":127,"AVAL":0,"BASE":2,"CHG":-2,"ABLFL":null,"TRT01A":"Xanomeline Low Dose","TRT01AN":2,"SAFFL":"Y","ITTFL":"Y","EFFFL":"Y","COMPFL":"Y","SITEID":"701","AGE":57,"AGEGR1":"<65","SEX":"F","RACE":"BLACK OR AFRICAN AMERICAN","ARMCD":"Xan_Lo","TRTSDT":"2013-10-26","TRTEDT":"2014-04-26"},{"STUDYID":"CDISCPILOT01","USUBJID":"01-701-1442","DOMAIN":"ADQS","PARAMCD":"NPTOT9","PARAM":"NPI-X 9-Domain Total Score","PARAMN":1,"AVISIT":"Week 20","AVISITN":20,"ADT":"2014-03-15","ADY":141,"AVAL":0,"BASE":2,"CHG":-2,"ABLFL":null,"TRT01A":"Xanomeline Low Dose","TRT01AN":2,"SAFFL":"Y","ITTFL":"Y","EFFFL":"Y","COMPFL":"Y","SITEID":"701","AGE":57,"AGEGR1":"<65","SEX":"F","RACE":"BLACK OR AFRICAN AMERICAN","ARMCD":"Xan_Lo","TRTSDT":"2013-10-26","TRTEDT":"2014-04-26"},{"STUDYID":"CDISCPILOT01","USUBJID":"01-701-1442","DOMAIN":"ADQS","PARAMCD":"NPTOT9","PARAM":"NPI-X 9-Domain Total Score","PARAMN":1,"AVISIT":"Week 22","AVISITN":22,"ADT":"2014-03-29","ADY":155,"AVAL":0,"BASE":2,"CHG":-2,"ABLFL":null,"TRT01A":"Xanomeline Low Dose","TRT01AN":2,"SAFFL":"Y","ITTFL":"Y","EFFFL":"Y","COMPFL":"Y","SITEID":"701","AGE":57,"AGEGR1":"<65","SEX":"F","RACE":"BLACK OR AFRICAN AMERICAN","ARMCD":"Xan_Lo","TRTSDT":"2013-10-26","TRTEDT":"2014-04-26"},{"STUDYID":"CDISCPILOT01","USUBJID":"01-701-1442","DOMAIN":"ADQS","PARAMCD":"NPTOT9","PARAM":"NPI-X 9-Domain Total Score","PARAMN":1,"AVISIT":"Week 24","AVISITN":24,"ADT":"2014-04-17","ADY":174,"AVAL":0,"BASE":2,"CHG":-2,"ABLFL":null,"TRT01A":"Xanomeline Low Dose","TRT01AN":2,"SAFFL":"Y","ITTFL":"Y","EFFFL":"Y","COMPFL":"Y","SITEID":"701","AGE":57,"AGEGR1":"<65","SEX":"F","RACE":"BLACK OR AFRICAN AMERICAN","ARMCD":"Xan_Lo","TRTSDT":"2013-10-26","TRTEDT":"2014-04-26"},{"STUDYID":"CDISCPILOT01","USUBJID":"01-701-1442","DOMAIN":"ADQS","PARAMCD":"NPTMN24","PARAM":"Mean NPI-X 9-Domain Total Score (Weeks 4-24)","PARAMN":2,"AVISIT":"Weeks 4-24 Mean","AVISITN":99,"ADT":null,"ADY":null,"AVAL":0.3636,"BASE":2,"CHG":-1.6364,"ABLFL":null,"TRT01A":"Xanomeline Low Dose","TRT01AN":2,"SAFFL":"Y","ITTFL":"Y","EFFFL":"Y","COMPFL":"Y","SITEID":"701","AGE":57,"AGEGR1":"<65","SEX":"F","RACE":"BLACK OR AFRICAN AMERICAN","ARMCD":"Xan_Lo","TRTSDT":"2013-10-26","TRTEDT":"2014-04-26"},{"STUDYID":"CDISCPILOT01","USUBJID":"01-701-1444","DOMAIN":"ADQS","PARAMCD":"NPTOT9","PARAM":"NPI-X 9-Domain Total Score","PARAMN":1,"AVISIT":"Baseline","AVISITN":0,"ADT":"2013-01-05","ADY":1,"AVAL":8,"BASE":8,"CHG":null,"ABLFL":"Y","TRT01A":"Xanomeline High Dose","TRT01AN":3,"SAFFL":"Y","ITTFL":"Y","EFFFL":"Y","COMPFL":"N","SITEID":"701","AGE":63,"AGEGR1":"<65","SEX":"M","RACE":"WHITE","ARMCD":"Xan_Hi","TRTSDT":"2013-01-05","TRTEDT":"2013-02-12"},{"STUDYID":"CDISCPILOT01","USUBJID":"01-701-1444","DOMAIN":"ADQS","PARAMCD":"NPTOT9","PARAM":"NPI-X 9-Domain Total Score","PARAMN":1,"AVISIT":"Week 2","AVISITN":2,"ADT":"2013-01-18","ADY":14,"AVAL":6,"BASE":8,"CHG":-2,"ABLFL":null,"TRT01A":"Xanomeline High Dose","TRT01AN":3,"SAFFL":"Y","ITTFL":"Y","EFFFL":"Y","COMPFL":"N","SITEID":"701","AGE":63,"AGEGR1":"<65","SEX":"M","RACE":"WHITE","ARMCD":"Xan_Hi","TRTSDT":"2013-01-05","TRTEDT":"2013-02-12"},{"STUDYID":"CDISCPILOT01","USUBJID":"01-701-1444","DOMAIN":"ADQS","PARAMCD":"NPTOT9","PARAM":"NPI-X 9-Domain Total Score","PARAMN":1,"AVISIT":"Week 4","AVISITN":4,"ADT":"2013-01-31","ADY":27,"AVAL":9,"BASE":8,"CHG":1,"ABLFL":null,"TRT01A":"Xanomeline High Dose","TRT01AN":3,"SAFFL":"Y","ITTFL":"Y","EFFFL":"Y","COMPFL":"N","SITEID":"701","AGE":63,"AGEGR1":"<65","SEX":"M","RACE":"WHITE","ARMCD":"Xan_Hi","TRTSDT":"2013-01-05","TRTEDT":"2013-02-12"},{"STUDYID":"CDISCPILOT01","USUBJID":"01-701-1444","DOMAIN":"ADQS","PARAMCD":"NPTOT9","PARAM":"NPI-X 9-Domain Total Score","PARAMN":1,"AVISIT":"Week 6","AVISITN":6,"ADT":"2013-02-13","ADY":40,"AVAL":4,"BASE":8,"CHG":-4,"ABLFL":null,"TRT01A":"Xanomeline High Dose","TRT01AN":3,"SAFFL":"Y","ITTFL":"Y","EFFFL":"Y","COMPFL":"N","SITEID":"701","AGE":63,"AGEGR1":"<65","SEX":"M","RACE":"WHITE","ARMCD":"Xan_Hi","TRTSDT":"2013-01-05","TRTEDT":"2013-02-12"},{"STUDYID":"CDISCPILOT01","USUBJID":"01-701-1444","DOMAIN":"ADQS","PARAMCD":"NPTMN24","PARAM":"Mean NPI-X 9-Domain Total Score (Weeks 4-24)","PARAMN":2,"AVISIT":"Weeks 4-24 Mean","AVISITN":99,"ADT":null,"ADY":null,"AVAL":6.5,"BASE":8,"CHG":-1.5,"ABLFL":null,"TRT01A":"Xanomeline High Dose","TRT01AN":3,"SAFFL":"Y","ITTFL":"Y","EFFFL":"Y","COMPFL":"N","SITEID":"701","AGE":63,"AGEGR1":"<65","SEX":"M","RACE":"WHITE","ARMCD":"Xan_Hi","TRTSDT":"2013-01-05","TRTEDT":"2013-02-12"},{"STUDYID":"CDISCPILOT01","USUBJID":"01-702-1082","DOMAIN":"ADQS","PARAMCD":"NPTOT9","PARAM":"NPI-X 9-Domain Total Score","PARAMN":1,"AVISIT":"Baseline","AVISITN":0,"ADT":"2013-07-26","ADY":1,"AVAL":2,"BASE":2,"CHG":null,"ABLFL":"Y","TRT01A":"Xanomeline Low Dose","TRT01AN":2,"SAFFL":"Y","ITTFL":"Y","EFFFL":"Y","COMPFL":"N","SITEID":"702","AGE":84,"AGEGR1":">80","SEX":"F","RACE":"WHITE","ARMCD":"Xan_Lo","TRTSDT":"2013-07-26","TRTEDT":"2013-10-13"},{"STUDYID":"CDISCPILOT01","USUBJID":"01-702-1082","DOMAIN":"ADQS","PARAMCD":"NPTOT9","PARAM":"NPI-X 9-Domain Total Score","PARAMN":1,"AVISIT":"Week 2","AVISITN":2,"ADT":"2013-08-08","ADY":14,"AVAL":0,"BASE":2,"CHG":-2,"ABLFL":null,"TRT01A":"Xanomeline Low Dose","TRT01AN":2,"SAFFL":"Y","ITTFL":"Y","EFFFL":"Y","COMPFL":"N","SITEID":"702","AGE":84,"AGEGR1":">80","SEX":"F","RACE":"WHITE","ARMCD":"Xan_Lo","TRTSDT":"2013-07-26","TRTEDT":"2013-10-13"},{"STUDYID":"CDISCPILOT01","USUBJID":"01-702-1082","DOMAIN":"ADQS","PARAMCD":"NPTOT9","PARAM":"NPI-X 9-Domain Total Score","PARAMN":1,"AVISIT":"Week 4","AVISITN":4,"ADT":"2013-08-24","ADY":30,"AVAL":3,"BASE":2,"CHG":1,"ABLFL":null,"TRT01A":"Xanomeline Low Dose","TRT01AN":2,"SAFFL":"Y","ITTFL":"Y","EFFFL":"Y","COMPFL":"N","SITEID":"702","AGE":84,"AGEGR1":">80","SEX":"F","RACE":"WHITE","ARMCD":"Xan_Lo","TRTSDT":"2013-07-26","TRTEDT":"2013-10-13"},{"STUDYID":"CDISCPILOT01","USUBJID":"01-702-1082","DOMAIN":"ADQS","PARAMCD":"NPTOT9","PARAM":"NPI-X 9-Domain Total Score","PARAMN":1,"AVISIT":"Week 6","AVISITN":6,"ADT":"2013-09-06","ADY":43,"AVAL":3,"BASE":2,"CHG":1,"ABLFL":null,"TRT01A":"Xanomeline Low Dose","TRT01AN":2,"SAFFL":"Y","ITTFL":"Y","EFFFL":"Y","COMPFL":"N","SITEID":"702","AGE":84,"AGEGR1":">80","SEX":"F","RACE":"WHITE","ARMCD":"Xan_Lo","TRTSDT":"2013-07-26","TRTEDT":"2013-10-13"},{"STUDYID":"CDISCPILOT01","USUBJID":"01-702-1082","DOMAIN":"ADQS","PARAMCD":"NPTOT9","PARAM":"NPI-X 9-Domain Total Score","PARAMN":1,"AVISIT":"Week 8","AVISITN":8,"ADT":"2013-09-28","ADY":65,"AVAL":2,"BASE":2,"CHG":0,"ABLFL":null,"TRT01A":"Xanomeline Low Dose","TRT01AN":2,"SAFFL":"Y","ITTFL":"Y","EFFFL":"Y","COMPFL":"N","SITEID":"702","AGE":84,"AGEGR1":">80","SEX":"F","RACE":"WHITE","ARMCD":"Xan_Lo","TRTSDT":"2013-07-26","TRTEDT":"2013-10-13"},{"STUDYID":"CDISCPILOT01","USUBJID":"01-702-1082","DOMAIN":"ADQS","PARAMCD":"NPTOT9","PARAM":"NPI-X 9-Domain Total Score","PARAMN":1,"AVISIT":"Week 10","AVISITN":10,"ADT":"2013-10-12","ADY":79,"AVAL":2,"BASE":2,"CHG":0,"ABLFL":null,"TRT01A":"Xanomeline Low Dose","TRT01AN":2,"SAFFL":"Y","ITTFL":"Y","EFFFL":"Y","COMPFL":"N","SITEID":"702","AGE":84,"AGEGR1":">80","SEX":"F","RACE":"WHITE","ARMCD":"Xan_Lo","TRTSDT":"2013-07-26","TRTEDT":"2013-10-13"},{"STUDYID":"CDISCPILOT01","USUBJID":"01-702-1082","DOMAIN":"ADQS","PARAMCD":"NPTOT9","PARAM":"NPI-X 9-Domain Total Score","PARAMN":1,"AVISIT":"Week 12","AVISITN":12,"ADT":"2013-11-17","ADY":115,"AVAL":4,"BASE":2,"CHG":2,"ABLFL":null,"TRT01A":"Xanomeline Low Dose","TRT01AN":2,"SAFFL":"Y","ITTFL":"Y","EFFFL":"Y","COMPFL":"N","SITEID":"702","AGE":84,"AGEGR1":">80","SEX":"F","RACE":"WHITE","ARMCD":"Xan_Lo","TRTSDT":"2013-07-26","TRTEDT":"2013-10-13"},{"STUDYID":"CDISCPILOT01","USUBJID":"01-702-1082","DOMAIN":"ADQS","PARAMCD":"NPTMN24","PARAM":"Mean NPI-X 9-Domain Total Score (Weeks 4-24)","PARAMN":2,"AVISIT":"Weeks 4-24 Mean","AVISITN":99,"ADT":null,"ADY":null,"AVAL":2.8,"BASE":2,"CHG":0.8,"ABLFL":null,"TRT01A":"Xanomeline Low Dose","TRT01AN":2,"SAFFL":"Y","ITTFL":"Y","EFFFL":"Y","COMPFL":"N","SITEID":"702","AGE":84,"AGEGR1":">80","SEX":"F","RACE":"WHITE","ARMCD":"Xan_Lo","TRTSDT":"2013-07-26","TRTEDT":"2013-10-13"},{"STUDYID":"CDISCPILOT01","USUBJID":"01-703-1042","DOMAIN":"ADQS","PARAMCD":"NPTOT9","PARAM":"NPI-X 9-Domain Total Score","PARAMN":1,"AVISIT":"Baseline","AVISITN":0,"ADT":"2013-03-02","ADY":1,"AVAL":2,"BASE":2,"CHG":null,"ABLFL":"Y","TRT01A":"Placebo","TRT01AN":1,"SAFFL":"Y","ITTFL":"Y","EFFFL":"Y","COMPFL":"Y","SITEID":"703","AGE":64,"AGEGR1":"<65","SEX":"M","RACE":"WHITE","ARMCD":"Pbo","TRTSDT":"2013-03-02","TRTEDT":"2013-08-31"},{"STUDYID":"CDISCPILOT01","USUBJID":"01-703-1042","DOMAIN":"ADQS","PARAMCD":"NPTOT9","PARAM":"NPI-X 9-Domain Total Score","PARAMN":1,"AVISIT":"Week 2","AVISITN":2,"ADT":"2013-03-14","ADY":13,"AVAL":3,"BASE":2,"CHG":1,"ABLFL":null,"TRT01A":"Placebo","TRT01AN":1,"SAFFL":"Y","ITTFL":"Y","EFFFL":"Y","COMPFL":"Y","SITEID":"703","AGE":64,"AGEGR1":"<65","SEX":"M","RACE":"WHITE","ARMCD":"Pbo","TRTSDT":"2013-03-02","TRTEDT":"2013-08-31"},{"STUDYID":"CDISCPILOT01","USUBJID":"01-703-1042","DOMAIN":"ADQS","PARAMCD":"NPTOT9","PARAM":"NPI-X 9-Domain Total Score","PARAMN":1,"AVISIT":"Week 4","AVISITN":4,"ADT":"2013-03-28","ADY":27,"AVAL":2,"BASE":2,"CHG":0,"ABLFL":null,"TRT01A":"Placebo","TRT01AN":1,"SAFFL":"Y","ITTFL":"Y","EFFFL":"Y","COMPFL":"Y","SITEID":"703","AGE":64,"AGEGR1":"<65","SEX":"M","RACE":"WHITE","ARMCD":"Pbo","TRTSDT":"2013-03-02","TRTEDT":"2013-08-31"},{"STUDYID":"CDISCPILOT01","USUBJID":"01-703-1042","DOMAIN":"ADQS","PARAMCD":"NPTOT9","PARAM":"NPI-X 9-Domain Total Score","PARAMN":1,"AVISIT":"Week 6","AVISITN":6,"ADT":"2013-04-13","ADY":43,"AVAL":2,"BASE":2,"CHG":0,"ABLFL":null,"TRT01A":"Placebo","TRT01AN":1,"SAFFL":"Y","ITTFL":"Y","EFFFL":"Y","COMPFL":"Y","SITEID":"703","AGE":64,"AGEGR1":"<65","SEX":"M","RACE":"WHITE","ARMCD":"Pbo","TRTSDT":"2013-03-02","TRTEDT":"2013-08-31"},{"STUDYID":"CDISCPILOT01","USUBJID":"01-703-1042","DOMAIN":"ADQS","PARAMCD":"NPTOT9","PARAM":"NPI-X 9-Domain Total Score","PARAMN":1,"AVISIT":"Week 10","AVISITN":10,"ADT":"2013-05-11","ADY":71,"AVAL":2,"BASE":2,"CHG":0,"ABLFL":null,"TRT01A":"Placebo","TRT01AN":1,"SAFFL":"Y","ITTFL":"Y","EFFFL":"Y","COMPFL":"Y","SITEID":"703","AGE":64,"AGEGR1":"<65","SEX":"M","RACE":"WHITE","ARMCD":"Pbo","TRTSDT":"2013-03-02","TRTEDT":"2013-08-31"},{"STUDYID":"CDISCPILOT01","USUBJID":"01-703-1042","DOMAIN":"ADQS","PARAMCD":"NPTOT9","PARAM":"NPI-X 9-Domain Total Score","PARAMN":1,"AVISIT":"Week 12","AVISITN":12,"ADT":"2013-05-25","ADY":85,"AVAL":3,"BASE":2,"CHG":1,"ABLFL":null,"TRT01A":"Placebo","TRT01AN":1,"SAFFL":"Y","ITTFL":"Y","EFFFL":"Y","COMPFL":"Y","SITEID":"703","AGE":64,"AGEGR1":"<65","SEX":"M","RACE":"WHITE","ARMCD":"Pbo","TRTSDT":"2013-03-02","TRTEDT":"2013-08-31"},{"STUDYID":"CDISCPILOT01","USUBJID":"01-703-1042","DOMAIN":"ADQS","PARAMCD":"NPTOT9","PARAM":"NPI-X 9-Domain Total Score","PARAMN":1,"AVISIT":"Week 14","AVISITN":14,"ADT":"2013-06-08","ADY":99,"AVAL":3,"BASE":2,"CHG":1,"ABLFL":null,"TRT01A":"Placebo","TRT01AN":1,"SAFFL":"Y","ITTFL":"Y","EFFFL":"Y","COMPFL":"Y","SITEID":"703","AGE":64,"AGEGR1":"<65","SEX":"M","RACE":"WHITE","ARMCD":"Pbo","TRTSDT":"2013-03-02","TRTEDT":"2013-08-31"},{"STUDYID":"CDISCPILOT01","USUBJID":"01-703-1042","DOMAIN":"ADQS","PARAMCD":"NPTOT9","PARAM":"NPI-X 9-Domain Total Score","PARAMN":1,"AVISIT":"Week 16","AVISITN":16,"ADT":"2013-06-22","ADY":113,"AVAL":2,"BASE":2,"CHG":0,"ABLFL":null,"TRT01A":"Placebo","TRT01AN":1,"SAFFL":"Y","ITTFL":"Y","EFFFL":"Y","COMPFL":"Y","SITEID":"703","AGE":64,"AGEGR1":"<65","SEX":"M","RACE":"WHITE","ARMCD":"Pbo","TRTSDT":"2013-03-02","TRTEDT":"2013-08-31"},{"STUDYID":"CDISCPILOT01","USUBJID":"01-703-1042","DOMAIN":"ADQS","PARAMCD":"NPTOT9","PARAM":"NPI-X 9-Domain Total Score","PARAMN":1,"AVISIT":"Week 18","AVISITN":18,"ADT":"2013-07-06","ADY":127,"AVAL":2,"BASE":2,"CHG":0,"ABLFL":null,"TRT01A":"Placebo","TRT01AN":1,"SAFFL":"Y","ITTFL":"Y","EFFFL":"Y","COMPFL":"Y","SITEID":"703","AGE":64,"AGEGR1":"<65","SEX":"M","RACE":"WHITE","ARMCD":"Pbo","TRTSDT":"2013-03-02","TRTEDT":"2013-08-31"},{"STUDYID":"CDISCPILOT01","USUBJID":"01-703-1042","DOMAIN":"ADQS","PARAMCD":"NPTOT9","PARAM":"NPI-X 9-Domain Total Score","PARAMN":1,"AVISIT":"Week 20","AVISITN":20,"ADT":"2013-07-20","ADY":141,"AVAL":2,"BASE":2,"CHG":0,"ABLFL":null,"TRT01A":"Placebo","TRT01AN":1,"SAFFL":"Y","ITTFL":"Y","EFFFL":"Y","COMPFL":"Y","SITEID":"703","AGE":64,"AGEGR1":"<65","SEX":"M","RACE":"WHITE","ARMCD":"Pbo","TRTSDT":"2013-03-02","TRTEDT":"2013-08-31"},{"STUDYID":"CDISCPILOT01","USUBJID":"01-703-1042","DOMAIN":"ADQS","PARAMCD":"NPTOT9","PARAM":"NPI-X 9-Domain Total Score","PARAMN":1,"AVISIT":"Week 22","AVISITN":22,"ADT":"2013-08-03","ADY":155,"AVAL":2,"BASE":2,"CHG":0,"ABLFL":null,"TRT01A":"Placebo","TRT01AN":1,"SAFFL":"Y","ITTFL":"Y","EFFFL":"Y","COMPFL":"Y","SITEID":"703","AGE":64,"AGEGR1":"<65","SEX":"M","RACE":"WHITE","ARMCD":"Pbo","TRTSDT":"2013-03-02","TRTEDT":"2013-08-31"},{"STUDYID":"CDISCPILOT01","USUBJID":"01-703-1042","DOMAIN":"ADQS","PARAMCD":"NPTOT9","PARAM":"NPI-X 9-Domain Total Score","PARAMN":1,"AVISIT":"Week 24","AVISITN":24,"ADT":"2013-08-09","ADY":161,"AVAL":2,"BASE":2,"CHG":0,"ABLFL":null,"TRT01A":"Placebo","TRT01AN":1,"SAFFL":"Y","ITTFL":"Y","EFFFL":"Y","COMPFL":"Y","SITEID":"703","AGE":64,"AGEGR1":"<65","SEX":"M","RACE":"WHITE","ARMCD":"Pbo","TRTSDT":"2013-03-02","TRTEDT":"2013-08-31"},{"STUDYID":"CDISCPILOT01","USUBJID":"01-703-1042","DOMAIN":"ADQS","PARAMCD":"NPTMN24","PARAM":"Mean NPI-X 9-Domain Total Score (Weeks 4-24)","PARAMN":2,"AVISIT":"Weeks 4-24 Mean","AVISITN":99,"ADT":null,"ADY":null,"AVAL":2.2,"BASE":2,"CHG":0.2,"ABLFL":null,"TRT01A":"Placebo","TRT01AN":1,"SAFFL":"Y","ITTFL":"Y","EFFFL":"Y","COMPFL":"Y","SITEID":"703","AGE":64,"AGEGR1":"<65","SEX":"M","RACE":"WHITE","ARMCD":"Pbo","TRTSDT":"2013-03-02","TRTEDT":"2013-08-31"},{"STUDYID":"CDISCPILOT01","USUBJID":"01-703-1076","DOMAIN":"ADQS","PARAMCD":"NPTOT9","PARAM":"NPI-X 9-Domain Total Score","PARAMN":1,"AVISIT":"Baseline","AVISITN":0,"ADT":"2013-10-25","ADY":1,"AVAL":2,"BASE":2,"CHG":null,"ABLFL":"Y","TRT01A":"Xanomeline High Dose","TRT01AN":3,"SAFFL":"Y","ITTFL":"Y","EFFFL":"Y","COMPFL":"N","SITEID":"703","AGE":69,"AGEGR1":"65-80","SEX":"M","RACE":"WHITE","ARMCD":"Xan_Hi","TRTSDT":"2013-10-25","TRTEDT":"2013-12-24"},{"STUDYID":"CDISCPILOT01","USUBJID":"01-703-1076","DOMAIN":"ADQS","PARAMCD":"NPTOT9","PARAM":"NPI-X 9-Domain Total Score","PARAMN":1,"AVISIT":"Week 2","AVISITN":2,"ADT":"2013-11-06","ADY":13,"AVAL":1,"BASE":2,"CHG":-1,"ABLFL":null,"TRT01A":"Xanomeline High Dose","TRT01AN":3,"SAFFL":"Y","ITTFL":"Y","EFFFL":"Y","COMPFL":"N","SITEID":"703","AGE":69,"AGEGR1":"65-80","SEX":"M","RACE":"WHITE","ARMCD":"Xan_Hi","TRTSDT":"2013-10-25","TRTEDT":"2013-12-24"},{"STUDYID":"CDISCPILOT01","USUBJID":"01-703-1076","DOMAIN":"ADQS","PARAMCD":"NPTOT9","PARAM":"NPI-X 9-Domain Total Score","PARAMN":1,"AVISIT":"Week 4","AVISITN":4,"ADT":"2013-11-20","ADY":27,"AVAL":2,"BASE":2,"CHG":0,"ABLFL":null,"TRT01A":"Xanomeline High Dose","TRT01AN":3,"SAFFL":"Y","ITTFL":"Y","EFFFL":"Y","COMPFL":"N","SITEID":"703","AGE":69,"AGEGR1":"65-80","SEX":"M","RACE":"WHITE","ARMCD":"Xan_Hi","TRTSDT":"2013-10-25","TRTEDT":"2013-12-24"},{"STUDYID":"CDISCPILOT01","USUBJID":"01-703-1076","DOMAIN":"ADQS","PARAMCD":"NPTOT9","PARAM":"NPI-X 9-Domain Total Score","PARAMN":1,"AVISIT":"Week 6","AVISITN":6,"ADT":"2013-12-04","ADY":41,"AVAL":3,"BASE":2,"CHG":1,"ABLFL":null,"TRT01A":"Xanomeline High Dose","TRT01AN":3,"SAFFL":"Y","ITTFL":"Y","EFFFL":"Y","COMPFL":"N","SITEID":"703","AGE":69,"AGEGR1":"65-80","SEX":"M","RACE":"WHITE","ARMCD":"Xan_Hi","TRTSDT":"2013-10-25","TRTEDT":"2013-12-24"},{"STUDYID":"CDISCPILOT01","USUBJID":"01-703-1076","DOMAIN":"ADQS","PARAMCD":"NPTOT9","PARAM":"NPI-X 9-Domain Total Score","PARAMN":1,"AVISIT":"Week 8","AVISITN":8,"ADT":"2013-12-17","ADY":54,"AVAL":1,"BASE":2,"CHG":-1,"ABLFL":null,"TRT01A":"Xanomeline High Dose","TRT01AN":3,"SAFFL":"Y","ITTFL":"Y","EFFFL":"Y","COMPFL":"N","SITEID":"703","AGE":69,"AGEGR1":"65-80","SEX":"M","RACE":"WHITE","ARMCD":"Xan_Hi","TRTSDT":"2013-10-25","TRTEDT":"2013-12-24"},{"STUDYID":"CDISCPILOT01","USUBJID":"01-703-1076","DOMAIN":"ADQS","PARAMCD":"NPTOT9","PARAM":"NPI-X 9-Domain Total Score","PARAMN":1,"AVISIT":"Week 12","AVISITN":12,"ADT":"2013-12-24","ADY":61,"AVAL":1,"BASE":2,"CHG":-1,"ABLFL":null,"TRT01A":"Xanomeline High Dose","TRT01AN":3,"SAFFL":"Y","ITTFL":"Y","EFFFL":"Y","COMPFL":"N","SITEID":"703","AGE":69,"AGEGR1":"65-80","SEX":"M","RACE":"WHITE","ARMCD":"Xan_Hi","TRTSDT":"2013-10-25","TRTEDT":"2013-12-24"},{"STUDYID":"CDISCPILOT01","USUBJID":"01-703-1076","DOMAIN":"ADQS","PARAMCD":"NPTMN24","PARAM":"Mean NPI-X 9-Domain Total Score (Weeks 4-24)","PARAMN":2,"AVISIT":"Weeks 4-24 Mean","AVISITN":99,"ADT":null,"ADY":null,"AVAL":1.75,"BASE":2,"CHG":-0.25,"ABLFL":null,"TRT01A":"Xanomeline High Dose","TRT01AN":3,"SAFFL":"Y","ITTFL":"Y","EFFFL":"Y","COMPFL":"N","SITEID":"703","AGE":69,"AGEGR1":"65-80","SEX":"M","RACE":"WHITE","ARMCD":"Xan_Hi","TRTSDT":"2013-10-25","TRTEDT":"2013-12-24"},{"STUDYID":"CDISCPILOT01","USUBJID":"01-703-1086","DOMAIN":"ADQS","PARAMCD":"NPTOT9","PARAM":"NPI-X 9-Domain Total Score","PARAMN":1,"AVISIT":"Baseline","AVISITN":0,"ADT":"2012-09-02","ADY":1,"AVAL":3,"BASE":3,"CHG":null,"ABLFL":"Y","TRT01A":"Xanomeline Low Dose","TRT01AN":2,"SAFFL":"Y","ITTFL":"Y","EFFFL":"Y","COMPFL":"N","SITEID":"703","AGE":71,"AGEGR1":"65-80","SEX":"M","RACE":"WHITE","ARMCD":"Xan_Lo","TRTSDT":"2012-09-02","TRTEDT":"2012-12-04"},{"STUDYID":"CDISCPILOT01","USUBJID":"01-703-1086","DOMAIN":"ADQS","PARAMCD":"NPTOT9","PARAM":"NPI-X 9-Domain Total Score","PARAMN":1,"AVISIT":"Week 2","AVISITN":2,"ADT":"2012-09-16","ADY":15,"AVAL":3,"BASE":3,"CHG":0,"ABLFL":null,"TRT01A":"Xanomeline Low Dose","TRT01AN":2,"SAFFL":"Y","ITTFL":"Y","EFFFL":"Y","COMPFL":"N","SITEID":"703","AGE":71,"AGEGR1":"65-80","SEX":"M","RACE":"WHITE","ARMCD":"Xan_Lo","TRTSDT":"2012-09-02","TRTEDT":"2012-12-04"},{"STUDYID":"CDISCPILOT01","USUBJID":"01-703-1086","DOMAIN":"ADQS","PARAMCD":"NPTOT9","PARAM":"NPI-X 9-Domain Total Score","PARAMN":1,"AVISIT":"Week 6","AVISITN":6,"ADT":"2012-10-13","ADY":42,"AVAL":2,"BASE":3,"CHG":-1,"ABLFL":null,"TRT01A":"Xanomeline Low Dose","TRT01AN":2,"SAFFL":"Y","ITTFL":"Y","EFFFL":"Y","COMPFL":"N","SITEID":"703","AGE":71,"AGEGR1":"65-80","SEX":"M","RACE":"WHITE","ARMCD":"Xan_Lo","TRTSDT":"2012-09-02","TRTEDT":"2012-12-04"},{"STUDYID":"CDISCPILOT01","USUBJID":"01-703-1086","DOMAIN":"ADQS","PARAMCD":"NPTOT9","PARAM":"NPI-X 9-Domain Total Score","PARAMN":1,"AVISIT":"Week 8","AVISITN":8,"ADT":"2012-10-27","ADY":56,"AVAL":4,"BASE":3,"CHG":1,"ABLFL":null,"TRT01A":"Xanomeline Low Dose","TRT01AN":2,"SAFFL":"Y","ITTFL":"Y","EFFFL":"Y","COMPFL":"N","SITEID":"703","AGE":71,"AGEGR1":"65-80","SEX":"M","RACE":"WHITE","ARMCD":"Xan_Lo","TRTSDT":"2012-09-02","TRTEDT":"2012-12-04"},{"STUDYID":"CDISCPILOT01","USUBJID":"01-703-1086","DOMAIN":"ADQS","PARAMCD":"NPTOT9","PARAM":"NPI-X 9-Domain Total Score","PARAMN":1,"AVISIT":"Week 10","AVISITN":10,"ADT":"2012-11-10","ADY":70,"AVAL":4,"BASE":3,"CHG":1,"ABLFL":null,"TRT01A":"Xanomeline Low Dose","TRT01AN":2,"SAFFL":"Y","ITTFL":"Y","EFFFL":"Y","COMPFL":"N","SITEID":"703","AGE":71,"AGEGR1":"65-80","SEX":"M","RACE":"WHITE","ARMCD":"Xan_Lo","TRTSDT":"2012-09-02","TRTEDT":"2012-12-04"},{"STUDYID":"CDISCPILOT01","USUBJID":"01-703-1086","DOMAIN":"ADQS","PARAMCD":"NPTOT9","PARAM":"NPI-X 9-Domain Total Score","PARAMN":1,"AVISIT":"Week 12","AVISITN":12,"ADT":"2012-11-27","ADY":87,"AVAL":4,"BASE":3,"CHG":1,"ABLFL":null,"TRT01A":"Xanomeline Low Dose","TRT01AN":2,"SAFFL":"Y","ITTFL":"Y","EFFFL":"Y","COMPFL":"N","SITEID":"703","AGE":71,"AGEGR1":"65-80","SEX":"M","RACE":"WHITE","ARMCD":"Xan_Lo","TRTSDT":"2012-09-02","TRTEDT":"2012-12-04"},{"STUDYID":"CDISCPILOT01","USUBJID":"01-703-1086","DOMAIN":"ADQS","PARAMCD":"NPTOT9","PARAM":"NPI-X 9-Domain Total Score","PARAMN":1,"AVISIT":"Week 14","AVISITN":14,"ADT":"2012-12-11","ADY":101,"AVAL":4,"BASE":3,"CHG":1,"ABLFL":null,"TRT01A":"Xanomeline Low Dose","TRT01AN":2,"SAFFL":"Y","ITTFL":"Y","EFFFL":"Y","COMPFL":"N","SITEID":"703","AGE":71,"AGEGR1":"65-80","SEX":"M","RACE":"WHITE","ARMCD":"Xan_Lo","TRTSDT":"2012-09-02","TRTEDT":"2012-12-04"},{"STUDYID":"CDISCPILOT01","USUBJID":"01-703-1086","DOMAIN":"ADQS","PARAMCD":"NPTOT9","PARAM":"NPI-X 9-Domain Total Score","PARAMN":1,"AVISIT":"Week 16","AVISITN":16,"ADT":"2012-12-24","ADY":114,"AVAL":3,"BASE":3,"CHG":0,"ABLFL":null,"TRT01A":"Xanomeline Low Dose","TRT01AN":2,"SAFFL":"Y","ITTFL":"Y","EFFFL":"Y","COMPFL":"N","SITEID":"703","AGE":71,"AGEGR1":"65-80","SEX":"M","RACE":"WHITE","ARMCD":"Xan_Lo","TRTSDT":"2012-09-02","TRTEDT":"2012-12-04"},{"STUDYID":"CDISCPILOT01","USUBJID":"01-703-1086","DOMAIN":"ADQS","PARAMCD":"NPTMN24","PARAM":"Mean NPI-X 9-Domain Total Score (Weeks 4-24)","PARAMN":2,"AVISIT":"Weeks 4-24 Mean","AVISITN":99,"ADT":null,"ADY":null,"AVAL":3.5,"BASE":3,"CHG":0.5,"ABLFL":null,"TRT01A":"Xanomeline Low Dose","TRT01AN":2,"SAFFL":"Y","ITTFL":"Y","EFFFL":"Y","COMPFL":"N","SITEID":"703","AGE":71,"AGEGR1":"65-80","SEX":"M","RACE":"WHITE","ARMCD":"Xan_Lo","TRTSDT":"2012-09-02","TRTEDT":"2012-12-04"},{"STUDYID":"CDISCPILOT01","USUBJID":"01-703-1100","DOMAIN":"ADQS","PARAMCD":"NPTOT9","PARAM":"NPI-X 9-Domain Total Score","PARAMN":1,"AVISIT":"Baseline","AVISITN":0,"ADT":"2013-03-13","ADY":1,"AVAL":12,"BASE":12,"CHG":null,"ABLFL":"Y","TRT01A":"Placebo","TRT01AN":1,"SAFFL":"Y","ITTFL":"Y","EFFFL":"Y","COMPFL":"Y","SITEID":"703","AGE":84,"AGEGR