[{"STUDYID":"CDISCPILOT01","USUBJID":"01-701-1015","DOMAIN":"ADQS","PARAMCD":"CIBIC","PARAM":"CIBIC+ Global Score","PARAMN":1,"AVISIT":"Week 2","AVISITN":2,"ADT":null,"ADY":null,"AVAL":null,"DTYPE":null,"ANL01FL":"Y","TRT01A":"Placebo","TRT01AN":1,"SAFFL":"Y","ITTFL":"Y","EFFFL":"Y","COMPFL":"Y","SITEID":"701","AGE":63,"AGEGR1":"<65","SEX":"F","RACE":"WHITE","ARMCD":"Pbo","TRTSDT":"2014-01-02","TRTEDT":"2014-07-02"},{"STUDYID":"CDISCPILOT01","USUBJID":"01-701-1015","DOMAIN":"ADQS","PARAMCD":"CIBIC","PARAM":"CIBIC+ Global Score","PARAMN":1,"AVISIT":"Week 4","AVISITN":4,"ADT":null,"ADY":null,"AVAL":null,"DTYPE":null,"ANL01FL":"Y","TRT01A":"Placebo","TRT01AN":1,"SAFFL":"Y","ITTFL":"Y","EFFFL":"Y","COMPFL":"Y","SITEID":"701","AGE":63,"AGEGR1":"<65","SEX":"F","RACE":"WHITE","ARMCD":"Pbo","TRTSDT":"2014-01-02","TRTEDT":"2014-07-02"},{"STUDYID":"CDISCPILOT01","USUBJID":"01-701-1015","DOMAIN":"ADQS","PARAMCD":"CIBIC","PARAM":"CIBIC+ Global Score","PARAMN":1,"AVISIT":"Week 6","AVISITN":6,"ADT":null,"ADY":null,"AVAL":null,"DTYPE":null,"ANL01FL":"Y","TRT01A":"Placebo","TRT01AN":1,"SAFFL":"Y","ITTFL":"Y","EFFFL":"Y","COMPFL":"Y","SITEID":"701","AGE":63,"AGEGR1":"<65","SEX":"F","RACE":"WHITE","ARMCD":"Pbo","TRTSDT":"2014-01-02","TRTEDT":"2014-07-02"},{"STUDYID":"CDISCPILOT01","USUBJID":"01-701-1015","DOMAIN":"ADQS","PARAMCD":"CIBIC","PARAM":"CIBIC+ Global Score","PARAMN":1,"AVISIT":"Week 8","AVISITN":8,"ADT":"2014-03-05","ADY":63,"AVAL":4,"DTYPE":null,"ANL01FL":"Y","TRT01A":"Placebo","TRT01AN":1,"SAFFL":"Y","ITTFL":"Y","EFFFL":"Y","COMPFL":"Y","SITEID":"701","AGE":63,"AGEGR1":"<65","SEX":"F","RACE":"WHITE","ARMCD":"Pbo","TRTSDT":"2014-01-02","TRTEDT":"2014-07-02"},{"STUDYID":"CDISCPILOT01","USUBJID":"01-701-1015","DOMAIN":"ADQS","PARAMCD":"CIBIC","PARAM":"CIBIC+ Global Score","PARAMN":1,"AVISIT":"Week 12","AVISITN":12,"ADT":null,"ADY":null,"AVAL":4,"DTYPE":null,"ANL01FL":"Y","TRT01A":"Placebo","TRT01AN":1,"SAFFL":"Y","ITTFL":"Y","EFFFL":"Y","COMPFL":"Y","SITEID":"701","AGE":63,"AGEGR1":"<65","SEX":"F","RACE":"WHITE","ARMCD":"Pbo","TRTSDT":"2014-01-02","TRTEDT":"2014-07-02"},{"STUDYID":"CDISCPILOT01","USUBJID":"01-701-1015","DOMAIN":"ADQS","PARAMCD":"CIBIC","PARAM":"CIBIC+ Global Score","PARAMN":1,"AVISIT":"Week 16","AVISITN":16,"ADT":"2014-05-07","ADY":126,"AVAL":4,"DTYPE":null,"ANL01FL":"Y","TRT01A":"Placebo","TRT01AN":1,"SAFFL":"Y","ITTFL":"Y","EFFFL":"Y","COMPFL":"Y","SITEID":"701","AGE":63,"AGEGR1":"<65","SEX":"F","RACE":"WHITE","ARMCD":"Pbo","TRTSDT":"2014-01-02","TRTEDT":"2014-07-02"},{"STUDYID":"CDISCPILOT01","USUBJID":"01-701-1015","DOMAIN":"ADQS","PARAMCD":"CIBIC","PARAM":"CIBIC+ Global Score","PARAMN":1,"AVISIT":"Week 20","AVISITN":20,"ADT":null,"ADY":null,"AVAL":4,"DTYPE":null,"ANL01FL":"Y","TRT01A":"Placebo","TRT01AN":1,"SAFFL":"Y","ITTFL":"Y","EFFFL":"Y","COMPFL":"Y","SITEID":"701","AGE":63,"AGEGR1":"<65","SEX":"F","RACE":"WHITE","ARMCD":"Pbo","TRTSDT":"2014-01-02","TRTEDT":"2014-07-02"},{"STUDYID":"CDISCPILOT01","USUBJID":"01-701-1015","DOMAIN":"ADQS","PARAMCD":"CIBIC","PARAM":"CIBIC+ Global Score","PARAMN":1,"AVISIT":"Week 24","AVISITN":24,"ADT":"2014-06-18","ADY":168,"AVAL":4,"DTYPE":null,"ANL01FL":"Y","TRT01A":"Placebo","TRT01AN":1,"SAFFL":"Y","ITTFL":"Y","EFFFL":"Y","COMPFL":"Y","SITEID":"701","AGE":63,"AGEGR1":"<65","SEX":"F","RACE":"WHITE","ARMCD":"Pbo","TRTSDT":"2014-01-02","TRTEDT":"2014-07-02"},{"STUDYID":"CDISCPILOT01","USUBJID":"01-701-1015","DOMAIN":"ADQS","PARAMCD":"CIBIC","PARAM":"CIBIC+ Global Score","PARAMN":1,"AVISIT":"Week 26","AVISITN":26,"ADT":null,"ADY":null,"AVAL":4,"DTYPE":null,"ANL01FL":"Y","TRT01A":"Placebo","TRT01AN":1,"SAFFL":"Y","ITTFL":"Y","EFFFL":"Y","COMPFL":"Y","SITEID":"701","AGE":63,"AGEGR1":"<65","SEX":"F","RACE":"WHITE","ARMCD":"Pbo","TRTSDT":"2014-01-02","TRTEDT":"2014-07-02"},{"STUDYID":"CDISCPILOT01","USUBJID":"01-701-1023","DOMAIN":"ADQS","PARAMCD":"CIBIC","PARAM":"CIBIC+ Global Score","PARAMN":1,"AVISIT":"Week 2","AVISITN":2,"ADT":null,"ADY":null,"AVAL":null,"DTYPE":null,"ANL01FL":"Y","TRT01A":"Placebo","TRT01AN":1,"SAFFL":"Y","ITTFL":"Y","EFFFL":"Y","COMPFL":"N","SITEID":"701","AGE":64,"AGEGR1":"<65","SEX":"M","RACE":"WHITE","ARMCD":"Pbo","TRTSDT":"2012-08-05","TRTEDT":"2012-09-01"},{"STUDYID":"CDISCPILOT01","USUBJID":"01-701-1023","DOMAIN":"ADQS","PARAMCD":"CIBIC","PARAM":"CIBIC+ Global Score","PARAMN":1,"AVISIT":"Week 4","AVISITN":4,"ADT":"2012-09-02","ADY":29,"AVAL":3,"DTYPE":null,"ANL01FL":"Y","TRT01A":"Placebo","TRT01AN":1,"SAFFL":"Y","ITTFL":"Y","EFFFL":"Y","COMPFL":"N","SITEID":"701","AGE":64,"AGEGR1":"<65","SEX":"M","RACE":"WHITE","ARMCD":"Pbo","TRTSDT":"2012-08-05","TRTEDT":"2012-09-01"},{"STUDYID":"CDISCPILOT01","USUBJID":"01-701-1023","DOMAIN":"ADQS","PARAMCD":"CIBIC","PARAM":"CIBIC+ Global Score","PARAMN":1,"AVISIT":"Week 6","AVISITN":6,"ADT":null,"ADY":null,"AVAL":3,"DTYPE":null,"ANL01FL":"Y","TRT01A":"Placebo","TRT01AN":1,"SAFFL":"Y","ITTFL":"Y","EFFFL":"Y","COMPFL":"N","SITEID":"701","AGE":64,"AGEGR1":"<65","SEX":"M","RACE":"WHITE","ARMCD":"Pbo","TRTSDT":"2012-08-05","TRTEDT":"2012-09-01"},{"STUDYID":"CDISCPILOT01","USUBJID":"01-701-1023","DOMAIN":"ADQS","PARAMCD":"CIBIC","PARAM":"CIBIC+ Global Score","PARAMN":1,"AVISIT":"Week 8","AVISITN":8,"ADT":null,"ADY":null,"AVAL":3,"DTYPE":"LOCF","ANL01FL":"Y","TRT01A":"Placebo","TRT01AN":1,"SAFFL":"Y","ITTFL":"Y","EFFFL":"Y","COMPFL":"N","SITEID":"701","AGE":64,"AGEGR1":"<65","SEX":"M","RACE":"WHITE","ARMCD":"Pbo","TRTSDT":"2012-08-05","TRTEDT":"2012-09-01"},{"STUDYID":"CDISCPILOT01","USUBJID":"01-701-1023","DOMAIN":"ADQS","PARAMCD":"CIBIC","PARAM":"CIBIC+ Global Score","PARAMN":1,"AVISIT":"Week 12","AVISITN":12,"ADT":null,"ADY":null,"AVAL":3,"DTYPE":null,"ANL01FL":"Y","TRT01A":"Placebo","TRT01AN":1,"SAFFL":"Y","ITTFL":"Y","EFFFL":"Y","COMPFL":"N","SITEID":"701","AGE":64,"AGEGR1":"<65","SEX":"M","RACE":"WHITE","ARMCD":"Pbo","TRTSDT":"2012-08-05","TRTEDT":"2012-09-01"},{"STUDYID":"CDISCPILOT01","USUBJID":"01-701-1023","DOMAIN":"ADQS","PARAMCD":"CIBIC","PARAM":"CIBIC+ Global Score","PARAMN":1,"AVISIT":"Week 16","AVISITN":16,"ADT":null,"ADY":null,"AVAL":3,"DTYPE":"LOCF","ANL01FL":"Y","TRT01A":"Placebo","TRT01AN":1,"SAFFL":"Y","ITTFL":"Y","EFFFL":"Y","COMPFL":"N","SITEID":"701","AGE":64,"AGEGR1":"<65","SEX":"M","RACE":"WHITE","ARMCD":"Pbo","TRTSDT":"2012-08-05","TRTEDT":"2012-09-01"},{"STUDYID":"CDISCPILOT01","USUBJID":"01-701-1023","DOMAIN":"ADQS","PARAMCD":"CIBIC","PARAM":"CIBIC+ Global Score","PARAMN":1,"AVISIT":"Week 20","AVISITN":20,"ADT":null,"ADY":null,"AVAL":3,"DTYPE":null,"ANL01FL":"Y","TRT01A":"Placebo","TRT01AN":1,"SAFFL":"Y","ITTFL":"Y","EFFFL":"Y","COMPFL":"N","SITEID":"701","AGE":64,"AGEGR1":"<65","SEX":"M","RACE":"WHITE","ARMCD":"Pbo","TRTSDT":"2012-08-05","TRTEDT":"2012-09-01"},{"STUDYID":"CDISCPILOT01","USUBJID":"01-701-1023","DOMAIN":"ADQS","PARAMCD":"CIBIC","PARAM":"CIBIC+ Global Score","PARAMN":1,"AVISIT":"Week 24","AVISITN":24,"ADT":"2013-02-18","ADY":198,"AVAL":5,"DTYPE":null,"ANL01FL":"Y","TRT01A":"Placebo","TRT01AN":1,"SAFFL":"Y","ITTFL":"Y","EFFFL":"Y","COMPFL":"N","SITEID":"701","AGE":64,"AGEGR1":"<65","SEX":"M","RACE":"WHITE","ARMCD":"Pbo","TRTSDT":"2012-08-05","TRTEDT":"2012-09-01"},{"STUDYID":"CDISCPILOT01","USUBJID":"01-701-1023","DOMAIN":"ADQS","PARAMCD":"CIBIC","PARAM":"CIBIC+ Global Score","PARAMN":1,"AVISIT":"Week 26","AVISITN":26,"ADT":null,"ADY":null,"AVAL":5,"DTYPE":null,"ANL01FL":"Y","TRT01A":"Placebo","TRT01AN":1,"SAFFL":"Y","ITTFL":"Y","EFFFL":"Y","COMPFL":"N","SITEID":"701","AGE":64,"AGEGR1":"<65","SEX":"M","RACE":"WHITE","ARMCD":"Pbo","TRTSDT":"2012-08-05","TRTEDT":"2012-09-01"},{"STUDYID":"CDISCPILOT01","USUBJID":"01-701-1028","DOMAIN":"ADQS","PARAMCD":"CIBIC","PARAM":"CIBIC+ Global Score","PARAMN":1,"AVISIT":"Week 2","AVISITN":2,"ADT":null,"ADY":null,"AVAL":null,"DTYPE":null,"ANL01FL":"Y","TRT01A":"Xanomeline High Dose","TRT01AN":3,"SAFFL":"Y","ITTFL":"Y","EFFFL":"Y","COMPFL":"Y","SITEID":"701","AGE":71,"AGEGR1":"65-80","SEX":"M","RACE":"WHITE","ARMCD":"Xan_Hi","TRTSDT":"2013-07-19","TRTEDT":"2014-01-14"},{"STUDYID":"CDISCPILOT01","USUBJID":"01-701-1028","DOMAIN":"ADQS","PARAMCD":"CIBIC","PARAM":"CIBIC+ Global Score","PARAMN":1,"AVISIT":"Week 4","AVISITN":4,"ADT":null,"ADY":null,"AVAL":null,"DTYPE":null,"ANL01FL":"Y","TRT01A":"Xanomeline High Dose","TRT01AN":3,"SAFFL":"Y","ITTFL":"Y","EFFFL":"Y","COMPFL":"Y","SITEID":"701","AGE":71,"AGEGR1":"65-80","SEX":"M","RACE":"WHITE","ARMCD":"Xan_Hi","TRTSDT":"2013-07-19","TRTEDT":"2014-01-14"},{"STUDYID":"CDISCPILOT01","USUBJID":"01-701-1028","DOMAIN":"ADQS","PARAMCD":"CIBIC","PARAM":"CIBIC+ Global Score","PARAMN":1,"AVISIT":"Week 6","AVISITN":6,"ADT":null,"ADY":null,"AVAL":null,"DTYPE":null,"ANL01FL":"Y","TRT01A":"Xanomeline High Dose","TRT01AN":3,"SAFFL":"Y","ITTFL":"Y","EFFFL":"Y","COMPFL":"Y","SITEID":"701","AGE":71,"AGEGR1":"65-80","SEX":"M","RACE":"WHITE","ARMCD":"Xan_Hi","TRTSDT":"2013-07-19","TRTEDT":"2014-01-14"},{"STUDYID":"CDISCPILOT01","USUBJID":"01-701-1028","DOMAIN":"ADQS","PARAMCD":"CIBIC","PARAM":"CIBIC+ Global Score","PARAMN":1,"AVISIT":"Week 8","AVISITN":8,"ADT":"2013-09-10","ADY":54,"AVAL":4,"DTYPE":null,"ANL01FL":"Y","TRT01A":"Xanomeline High Dose","TRT01AN":3,"SAFFL":"Y","ITTFL":"Y","EFFFL":"Y","COMPFL":"Y","SITEID":"701","AGE":71,"AGEGR1":"65-80","SEX":"M","RACE":"WHITE","ARMCD":"Xan_Hi","TRTSDT":"2013-07-19","TRTEDT":"2014-01-14"},{"STUDYID":"CDISCPILOT01","USUBJID":"01-701-1028","DOMAIN":"ADQS","PARAMCD":"CIBIC","PARAM":"CIBIC+ Global Score","PARAMN":1,"AVISIT":"Week 12","AVISITN":12,"ADT":null,"ADY":null,"AVAL":4,"DTYPE":null,"ANL01FL":"Y","TRT01A":"Xanomeline High Dose","TRT01AN":3,"SAFFL":"Y","ITTFL":"Y","EFFFL":"Y","COMPFL":"Y","SITEID":"701","AGE":71,"AGEGR1":"65-80","SEX":"M","RACE":"WHITE","ARMCD":"Xan_Hi","TRTSDT":"2013-07-19","TRTEDT":"2014-01-14"},{"STUDYID":"CDISCPILOT01","USUBJID":"01-701-1028","DOMAIN":"ADQS","PARAMCD":"CIBIC","PARAM":"CIBIC+ Global Score","PARAMN":1,"AVISIT":"Week 16","AVISITN":16,"ADT":"2013-11-06","ADY":111,"AVAL":4,"DTYPE":null,"ANL01FL":"Y","TRT01A":"Xanomeline High Dose","TRT01AN":3,"SAFFL":"Y","ITTFL":"Y","EFFFL":"Y","COMPFL":"Y","SITEID":"701","AGE":71,"AGEGR1":"65-80","SEX":"M","RACE":"WHITE","ARMCD":"Xan_Hi","TRTSDT":"2013-07-19","TRTEDT":"2014-01-14"},{"STUDYID":"CDISCPILOT01","USUBJID":"01-701-1028","DOMAIN":"ADQS","PARAMCD":"CIBIC","PARAM":"CIBIC+ Global Score","PARAMN":1,"AVISIT":"Week 20","AVISITN":20,"ADT":null,"ADY":null,"AVAL":4,"DTYPE":null,"ANL01FL":"Y","TRT01A":"Xanomeline High Dose","TRT01AN":3,"SAFFL":"Y","ITTFL":"Y","EFFFL":"Y","COMPFL":"Y","SITEID":"701","AGE":71,"AGEGR1":"65-80","SEX":"M","RACE":"WHITE","ARMCD":"Xan_Hi","TRTSDT":"2013-07-19","TRTEDT":"2014-01-14"},{"STUDYID":"CDISCPILOT01","USUBJID":"01-701-1028","DOMAIN":"ADQS","PARAMCD":"CIBIC","PARAM":"CIBIC+ Global Score","PARAMN":1,"AVISIT":"Week 24","AVISITN":24,"ADT":"2014-01-06","ADY":172,"AVAL":4,"DTYPE":null,"ANL01FL":"Y","TRT01A":"Xanomeline High Dose","TRT01AN":3,"SAFFL":"Y","ITTFL":"Y","EFFFL":"Y","COMPFL":"Y","SITEID":"701","AGE":71,"AGEGR1":"65-80","SEX":"M","RACE":"WHITE","ARMCD":"Xan_Hi","TRTSDT":"2013-07-19","TRTEDT":"2014-01-14"},{"STUDYID":"CDISCPILOT01","USUBJID":"01-701-1028","DOMAIN":"ADQS","PARAMCD":"CIBIC","PARAM":"CIBIC+ Global Score","PARAMN":1,"AVISIT":"Week 26","AVISITN":26,"ADT":null,"ADY":null,"AVAL":4,"DTYPE":null,"ANL01FL":"Y","TRT01A":"Xanomeline High Dose","TRT01AN":3,"SAFFL":"Y","ITTFL":"Y","EFFFL":"Y","COMPFL":"Y","SITEID":"701","AGE":71,"AGEGR1":"65-80","SEX":"M","RACE":"WHITE","ARMCD":"Xan_Hi","TRTSDT":"2013-07-19","TRTEDT":"2014-01-14"},{"STUDYID":"CDISCPILOT01","USUBJID":"01-701-1033","DOMAIN":"ADQS","PARAMCD":"CIBIC","PARAM":"CIBIC+ Global Score","PARAMN":1,"AVISIT":"Week 2","AVISITN":2,"ADT":null,"ADY":null,"AVAL":null,"DTYPE":null,"ANL01FL":"Y","TRT01A":"Xanomeline Low Dose","TRT01AN":2,"SAFFL":"Y","ITTFL":"Y","EFFFL":"Y","COMPFL":"N","SITEID":"701","AGE":74,"AGEGR1":"65-80","SEX":"M","RACE":"WHITE","ARMCD":"Xan_Lo","TRTSDT":"2014-03-18","TRTEDT":"2014-03-31"},{"STUDYID":"CDISCPILOT01","USUBJID":"01-701-1033","DOMAIN":"ADQS","PARAMCD":"CIBIC","PARAM":"CIBIC+ Global Score","PARAMN":1,"AVISIT":"Week 4","AVISITN":4,"ADT":"2014-04-14","ADY":28,"AVAL":4,"DTYPE":null,"ANL01FL":"Y","TRT01A":"Xanomeline Low Dose","TRT01AN":2,"SAFFL":"Y","ITTFL":"Y","EFFFL":"Y","COMPFL":"N","SITEID":"701","AGE":74,"AGEGR1":"65-80","SEX":"M","RACE":"WHITE","ARMCD":"Xan_Lo","TRTSDT":"2014-03-18","TRTEDT":"2014-03-31"},{"STUDYID":"CDISCPILOT01","USUBJID":"01-701-1033","DOMAIN":"ADQS","PARAMCD":"CIBIC","PARAM":"CIBIC+ Global Score","PARAMN":1,"AVISIT":"Week 6","AVISITN":6,"ADT":null,"ADY":null,"AVAL":4,"DTYPE":null,"ANL01FL":"Y","TRT01A":"Xanomeline Low Dose","TRT01AN":2,"SAFFL":"Y","ITTFL":"Y","EFFFL":"Y","COMPFL":"N","SITEID":"701","AGE":74,"AGEGR1":"65-80","SEX":"M","RACE":"WHITE","ARMCD":"Xan_Lo","TRTSDT":"2014-03-18","TRTEDT":"2014-03-31"},{"STUDYID":"CDISCPILOT01","USUBJID":"01-701-1033","DOMAIN":"ADQS","PARAMCD":"CIBIC","PARAM":"CIBIC+ Global Score","PARAMN":1,"AVISIT":"Week 8","AVISITN":8,"ADT":null,"ADY":null,"AVAL":4,"DTYPE":"LOCF","ANL01FL":"Y","TRT01A":"Xanomeline Low Dose","TRT01AN":2,"SAFFL":"Y","ITTFL":"Y","EFFFL":"Y","COMPFL":"N","SITEID":"701","AGE":74,"AGEGR1":"65-80","SEX":"M","RACE":"WHITE","ARMCD":"Xan_Lo","TRTSDT":"2014-03-18","TRTEDT":"2014-03-31"},{"STUDYID":"CDISCPILOT01","USUBJID":"01-701-1033","DOMAIN":"ADQS","PARAMCD":"CIBIC","PARAM":"CIBIC+ Global Score","PARAMN":1,"AVISIT":"Week 12","AVISITN":12,"ADT":null,"ADY":null,"AVAL":4,"DTYPE":null,"ANL01FL":"Y","TRT01A":"Xanomeline Low Dose","TRT01AN":2,"SAFFL":"Y","ITTFL":"Y","EFFFL":"Y","COMPFL":"N","SITEID":"701","AGE":74,"AGEGR1":"65-80","SEX":"M","RACE":"WHITE","ARMCD":"Xan_Lo","TRTSDT":"2014-03-18","TRTEDT":"2014-03-31"},{"STUDYID":"CDISCPILOT01","USUBJID":"01-701-1033","DOMAIN":"ADQS","PARAMCD":"CIBIC","PARAM":"CIBIC+ Global Score","PARAMN":1,"AVISIT":"Week 16","AVISITN":16,"ADT":null,"ADY":null,"AVAL":4,"DTYPE":"LOCF","ANL01FL":"Y","TRT01A":"Xanomeline Low Dose","TRT01AN":2,"SAFFL":"Y","ITTFL":"Y","EFFFL":"Y","COMPFL":"N","SITEID":"701","AGE":74,"AGEGR1":"65-80","SEX":"M","RACE":"WHITE","ARMCD":"Xan_Lo","TRTSDT":"2014-03-18","TRTEDT":"2014-03-31"},{"STUDYID":"CDISCPILOT01","USUBJID":"01-701-1033","DOMAIN":"ADQS","PARAMCD":"CIBIC","PARAM":"CIBIC+ Global Score","PARAMN":1,"AVISIT":"Week 20","AVISITN":20,"ADT":null,"ADY":null,"AVAL":4,"DTYPE":null,"ANL01FL":"Y","TRT01A":"Xanomeline Low Dose","TRT01AN":2,"SAFFL":"Y","ITTFL":"Y","EFFFL":"Y","COMPFL":"N","SITEID":"701","AGE":74,"AGEGR1":"65-80","SEX":"M","RACE":"WHITE","ARMCD":"Xan_Lo","TRTSDT":"2014-03-18","TRTEDT":"2014-03-31"},{"STUDYID":"CDISCPILOT01","USUBJID":"01-701-1033","DOMAIN":"ADQS","PARAMCD":"CIBIC","PARAM":"CIBIC+ Global Score","PARAMN":1,"AVISIT":"Week 24","AVISITN":24,"ADT":"2014-09-15","ADY":182,"AVAL":4,"DTYPE":null,"ANL01FL":"Y","TRT01A":"Xanomeline Low Dose","TRT01AN":2,"SAFFL":"Y","ITTFL":"Y","EFFFL":"Y","COMPFL":"N","SITEID":"701","AGE":74,"AGEGR1":"65-80","SEX":"M","RACE":"WHITE","ARMCD":"Xan_Lo","TRTSDT":"2014-03-18","TRTEDT":"2014-03-31"},{"STUDYID":"CDISCPILOT01","USUBJID":"01-701-1033","DOMAIN":"ADQS","PARAMCD":"CIBIC","PARAM":"CIBIC+ Global Score","PARAMN":1,"AVISIT":"Week 26","AVISITN":26,"ADT":null,"ADY":null,"AVAL":4,"DTYPE":null,"ANL01FL":"Y","TRT01A":"Xanomeline Low Dose","TRT01AN":2,"SAFFL":"Y","ITTFL":"Y","EFFFL":"Y","COMPFL":"N","SITEID":"701","AGE":74,"AGEGR1":"65-80","SEX":"M","RACE":"WHITE","ARMCD":"Xan_Lo","TRTSDT":"2014-03-18","TRTEDT":"2014-03-31"},{"STUDYID":"CDISCPILOT01","USUBJID":"01-701-1034","DOMAIN":"ADQS","PARAMCD":"CIBIC","PARAM":"CIBIC+ Global Score","PARAMN":1,"AVISIT":"Week 2","AVISITN":2,"ADT":null,"ADY":null,"AVAL":null,"DTYPE":null,"ANL01FL":"Y","TRT01A":"Xanomeline High Dose","TRT01AN":3,"SAFFL":"Y","ITTFL":"Y","EFFFL":"Y","COMPFL":"Y","SITEID":"701","AGE":77,"AGEGR1":"65-80","SEX":"F","RACE":"WHITE","ARMCD":"Xan_Hi","TRTSDT":"2014-07-01","TRTEDT":"2014-12-30"},{"STUDYID":"CDISCPILOT01","USUBJID":"01-701-1034","DOMAIN":"ADQS","PARAMCD":"CIBIC","PARAM":"CIBIC+ Global Score","PARAMN":1,"AVISIT":"Week 4","AVISITN":4,"ADT":null,"ADY":null,"AVAL":null,"DTYPE":null,"ANL01FL":"Y","TRT01A":"Xanomeline High Dose","TRT01AN":3,"SAFFL":"Y","ITTFL":"Y","EFFFL":"Y","COMPFL":"Y","SITEID":"701","AGE":77,"AGEGR1":"65-80","SEX":"F","RACE":"WHITE","ARMCD":"Xan_Hi","TRTSDT":"2014-07-01","TRTEDT":"2014-12-30"},{"STUDYID":"CDISCPILOT01","USUBJID":"01-701-1034","DOMAIN":"ADQS","PARAMCD":"CIBIC","PARAM":"CIBIC+ Global Score","PARAMN":1,"AVISIT":"Week 6","AVISITN":6,"ADT":null,"ADY":null,"AVAL":null,"DTYPE":null,"ANL01FL":"Y","TRT01A":"Xanomeline High Dose","TRT01AN":3,"SAFFL":"Y","ITTFL":"Y","EFFFL":"Y","COMPFL":"Y","SITEID":"701","AGE":77,"AGEGR1":"65-80","SEX":"F","RACE":"WHITE","ARMCD":"Xan_Hi","TRTSDT":"2014-07-01","TRTEDT":"2014-12-30"},{"STUDYID":"CDISCPILOT01","USUBJID":"01-701-1034","DOMAIN":"ADQS","PARAMCD":"CIBIC","PARAM":"CIBIC+ Global Score","PARAMN":1,"AVISIT":"Week 8","AVISITN":8,"ADT":"2014-08-26","ADY":57,"AVAL":4,"DTYPE":null,"ANL01FL":"Y","TRT01A":"Xanomeline High Dose","TRT01AN":3,"SAFFL":"Y","ITTFL":"Y","EFFFL":"Y","COMPFL":"Y","SITEID":"701","AGE":77,"AGEGR1":"65-80","SEX":"F","RACE":"WHITE","ARMCD":"Xan_Hi","TRTSDT":"2014-07-01","TRTEDT":"2014-12-30"},{"STUDYID":"CDISCPILOT01","USUBJID":"01-701-1034","DOMAIN":"ADQS","PARAMCD":"CIBIC","PARAM":"CIBIC+ Global Score","PARAMN":1,"AVISIT":"Week 12","AVISITN":12,"ADT":null,"ADY":null,"AVAL":4,"DTYPE":null,"ANL01FL":"Y","TRT01A":"Xanomeline High Dose","TRT01AN":3,"SAFFL":"Y","ITTFL":"Y","EFFFL":"Y","COMPFL":"Y","SITEID":"701","AGE":77,"AGEGR1":"65-80","SEX":"F","RACE":"WHITE","ARMCD":"Xan_Hi","TRTSDT":"2014-07-01","TRTEDT":"2014-12-30"},{"STUDYID":"CDISCPILOT01","USUBJID":"01-701-1034","DOMAIN":"ADQS","PARAMCD":"CIBIC","PARAM":"CIBIC+ Global Score","PARAMN":1,"AVISIT":"Week 16","AVISITN":16,"ADT":"2014-10-21","ADY":113,"AVAL":3,"DTYPE":null,"ANL01FL":"Y","TRT01A":"Xanomeline High Dose","TRT01AN":3,"SAFFL":"Y","ITTFL":"Y","EFFFL":"Y","COMPFL":"Y","SITEID":"701","AGE":77,"AGEGR1":"65-80","SEX":"F","RACE":"WHITE","ARMCD":"Xan_Hi","TRTSDT":"2014-07-01","TRTEDT":"2014-12-30"},{"STUDYID":"CDISCPILOT01","USUBJID":"01-701-1034","DOMAIN":"ADQS","PARAMCD":"CIBIC","PARAM":"CIBIC+ Global Score","PARAMN":1,"AVISIT":"Week 20","AVISITN":20,"ADT":null,"ADY":null,"AVAL":3,"DTYPE":null,"ANL01FL":"Y","TRT01A":"Xanomeline High Dose","TRT01AN":3,"SAFFL":"Y","ITTFL":"Y","EFFFL":"Y","COMPFL":"Y","SITEID":"701","AGE":77,"AGEGR1":"65-80","SEX":"F","RACE":"WHITE","ARMCD":"Xan_Hi","TRTSDT":"2014-07-01","TRTEDT":"2014-12-30"},{"STUDYID":"CDISCPILOT01","USUBJID":"01-701-1034","DOMAIN":"ADQS","PARAMCD":"CIBIC","PARAM":"CIBIC+ Global Score","PARAMN":1,"AVISIT":"Week 24","AVISITN":24,"ADT":"2014-12-17","ADY":170,"AVAL":4,"DTYPE":null,"ANL01FL":"Y","TRT01A":"Xanomeline High Dose","TRT01AN":3,"SAFFL":"Y","ITTFL":"Y","EFFFL":"Y","COMPFL":"Y","SITEID":"701","AGE":77,"AGEGR1":"65-80","SEX":"F","RACE":"WHITE","ARMCD":"Xan_Hi","TRTSDT":"2014-07-01","TRTEDT":"2014-12-30"},{"STUDYID":"CDISCPILOT01","USUBJID":"01-701-1034","DOMAIN":"ADQS","PARAMCD":"CIBIC","PARAM":"CIBIC+ Global Score","PARAMN":1,"AVISIT":"Week 26","AVISITN":26,"ADT":null,"ADY":null,"AVAL":4,"DTYPE":null,"ANL01FL":"Y","TRT01A":"Xanomeline High Dose","TRT01AN":3,"SAFFL":"Y","ITTFL":"Y","EFFFL":"Y","COMPFL":"Y","SITEID":"701","AGE":77,"AGEGR1":"65-80","SEX":"F","RACE":"WHITE","ARMCD":"Xan_Hi","TRTSDT":"2014-07-01","TRTEDT":"2014-12-30"},{"STUDYID":"CDISCPILOT01","USUBJID":"01-701-1047","DOMAIN":"ADQS","PARAMCD":"CIBIC","PARAM":"CIBIC+ Global Score","PARAMN":1,"AVISIT":"Week 2","AVISITN":2,"ADT":null,"ADY":null,"AVAL":null,"DTYPE":null,"ANL01FL":"Y","TRT01A":"Placebo","TRT01AN":1,"SAFFL":"Y","ITTFL":"Y","EFFFL":"Y","COMPFL":"N","SITEID":"701","AGE":85,"AGEGR1":">80","SEX":"F","RACE":"WHITE","ARMCD":"Pbo","TRTSDT":"2013-02-12","TRTEDT":"2013-03-09"},{"STUDYID":"CDISCPILOT01","USUBJID":"01-701-1047","DOMAIN":"ADQS","PARAMCD":"CIBIC","PARAM":"CIBIC+ Global Score","PARAMN":1,"AVISIT":"Week 4","AVISITN":4,"ADT":null,"ADY":null,"AVAL":null,"DTYPE":null,"ANL01FL":"Y","TRT01A":"Placebo","TRT01AN":1,"SAFFL":"Y","ITTFL":"Y","EFFFL":"Y","COMPFL":"N","SITEID":"701","AGE":85,"AGEGR1":">80","SEX":"F","RACE":"WHITE","ARMCD":"Pbo","TRTSDT":"2013-02-12","TRTEDT":"2013-03-09"},{"STUDYID":"CDISCPILOT01","USUBJID":"01-701-1047","DOMAIN":"ADQS","PARAMCD":"CIBIC","PARAM":"CIBIC+ Global Score","PARAMN":1,"AVISIT":"Week 6","AVISITN":6,"ADT":null,"ADY":null,"AVAL":null,"DTYPE":null,"ANL01FL":"Y","TRT01A":"Placebo","TRT01AN":1,"SAFFL":"Y","ITTFL":"Y","EFFFL":"Y","COMPFL":"N","SITEID":"701","AGE":85,"AGEGR1":">80","SEX":"F","RACE":"WHITE","ARMCD":"Pbo","TRTSDT":"2013-02-12","TRTEDT":"2013-03-09"},{"STUDYID":"CDISCPILOT01","USUBJID":"01-701-1047","DOMAIN":"ADQS","PARAMCD":"CIBIC","PARAM":"CIBIC+ Global Score","PARAMN":1,"AVISIT":"Week 8","AVISITN":8,"ADT":null,"ADY":null,"AVAL":null,"DTYPE":null,"ANL01FL":"Y","TRT01A":"Placebo","TRT01AN":1,"SAFFL":"Y","ITTFL":"Y","EFFFL":"Y","COMPFL":"N","SITEID":"701","AGE":85,"AGEGR1":">80","SEX":"F","RACE":"WHITE","ARMCD":"Pbo","TRTSDT":"2013-02-12","TRTEDT":"2013-03-09"},{"STUDYID":"CDISCPILOT01","USUBJID":"01-701-1047","DOMAIN":"ADQS","PARAMCD":"CIBIC","PARAM":"CIBIC+ Global Score","PARAMN":1,"AVISIT":"Week 12","AVISITN":12,"ADT":null,"ADY":null,"AVAL":null,"DTYPE":null,"ANL01FL":"Y","TRT01A":"Placebo","TRT01AN":1,"SAFFL":"Y","ITTFL":"Y","EFFFL":"Y","COMPFL":"N","SITEID":"701","AGE":85,"AGEGR1":">80","SEX":"F","RACE":"WHITE","ARMCD":"Pbo","TRTSDT":"2013-02-12","TRTEDT":"2013-03-09"},{"STUDYID":"CDISCPILOT01","USUBJID":"01-701-1047","DOMAIN":"ADQS","PARAMCD":"CIBIC","PARAM":"CIBIC+ Global Score","PARAMN":1,"AVISIT":"Week 16","AVISITN":16,"ADT":null,"ADY":null,"AVAL":null,"DTYPE":null,"ANL01FL":"Y","TRT01A":"Placebo","TRT01AN":1,"SAFFL":"Y","ITTFL":"Y","EFFFL":"Y","COMPFL":"N","SITEID":"701","AGE":85,"AGEGR1":">80","SEX":"F","RACE":"WHITE","ARMCD":"Pbo","TRTSDT":"2013-02-12","TRTEDT":"2013-03-09"},{"STUDYID":"CDISCPILOT01","USUBJID":"01-701-1047","DOMAIN":"ADQS","PARAMCD":"CIBIC","PARAM":"CIBIC+ Global Score","PARAMN":1,"AVISIT":"Week 20","AVISITN":20,"ADT":null,"ADY":null,"AVAL":null,"DTYPE":null,"ANL01FL":"Y","TRT01A":"Placebo","TRT01AN":1,"SAFFL":"Y","ITTFL":"Y","EFFFL":"Y","COMPFL":"N","SITEID":"701","AGE":85,"AGEGR1":">80","SEX":"F","RACE":"WHITE","ARMCD":"Pbo","TRTSDT":"2013-02-12","TRTEDT":"2013-03-09"},{"STUDYID":"CDISCPILOT01","USUBJID":"01-701-1047","DOMAIN":"ADQS","PARAMCD":"CIBIC","PARAM":"CIBIC+ Global Score","PARAMN":1,"AVISIT":"Week 24","AVISITN":24,"ADT":"2013-07-28","ADY":167,"AVAL":5,"DTYPE":null,"ANL01FL":"Y","TRT01A":"Placebo","TRT01AN":1,"SAFFL":"Y","ITTFL":"Y","EFFFL":"Y","COMPFL":"N","SITEID":"701","AGE":85,"AGEGR1":">80","SEX":"F","RACE":"WHITE","ARMCD":"Pbo","TRTSDT":"2013-02-12","TRTEDT":"2013-03-09"},{"STUDYID":"CDISCPILOT01","USUBJID":"01-701-1047","DOMAIN":"ADQS","PARAMCD":"CIBIC","PARAM":"CIBIC+ Global Score","PARAMN":1,"AVISIT":"Week 26","AVISITN":26,"ADT":null,"ADY":null,"AVAL":5,"DTYPE":null,"ANL01FL":"Y","TRT01A":"Placebo","TRT01AN":1,"SAFFL":"Y","ITTFL":"Y","EFFFL":"Y","COMPFL":"N","SITEID":"701","AGE":85,"AGEGR1":">80","SEX":"F","RACE":"WHITE","ARMCD":"Pbo","TRTSDT":"2013-02-12","TRTEDT":"2013-03-09"},{"STUDYID":"CDISCPILOT01","USUBJID":"01-701-1097","DOMAIN":"ADQS","PARAMCD":"CIBIC","PARAM":"CIBIC+ Global Score","PARAMN":1,"AVISIT":"Week 2","AVISITN":2,"ADT":null,"ADY":null,"AVAL":null,"DTYPE":null,"ANL01FL":"Y","TRT01A":"Xanomeline Low Dose","TRT01AN":2,"SAFFL":"Y","ITTFL":"Y","EFFFL":"Y","COMPFL":"Y","SITEID":"701","AGE":68,"AGEGR1":"65-80","SEX":"M","RACE":"WHITE","ARMCD":"Xan_Lo","TRTSDT":"2014-01-01","TRTEDT":"2014-07-09"},{"STUDYID":"CDISCPILOT01","USUBJID":"01-701-1097","DOMAIN":"ADQS","PARAMCD":"CIBIC","PARAM":"CIBIC+ Global Score","PARAMN":1,"AVISIT":"Week 4","AVISITN":4,"ADT":null,"ADY":null,"AVAL":null,"DTYPE":null,"ANL01FL":"Y","TRT01A":"Xanomeline Low Dose","TRT01AN":2,"SAFFL":"Y","ITTFL":"Y","EFFFL":"Y","COMPFL":"Y","SITEID":"701","AGE":68,"AGEGR1":"65-80","SEX":"M","RACE":"WHITE","ARMCD":"Xan_Lo","TRTSDT":"2014-01-01","TRTEDT":"2014-07-09"},{"STUDYID":"CDISCPILOT01","USUBJID":"01-701-1097","DOMAIN":"ADQS","PARAMCD":"CIBIC","PARAM":"CIBIC+ Global Score","PARAMN":1,"AVISIT":"Week 6","AVISITN":6,"ADT":null,"ADY":null,"AVAL":null,"DTYPE":null,"ANL01FL":"Y","TRT01A":"Xanomeline Low Dose","TRT01AN":2,"SAFFL":"Y","ITTFL":"Y","EFFFL":"Y","COMPFL":"Y","SITEID":"701","AGE":68,"AGEGR1":"65-80","SEX":"M","RACE":"WHITE","ARMCD":"Xan_Lo","TRTSDT":"2014-01-01","TRTEDT":"2014-07-09"},{"STUDYID":"CDISCPILOT01","USUBJID":"01-701-1097","DOMAIN":"ADQS","PARAMCD":"CIBIC","PARAM":"CIBIC+ Global Score","PARAMN":1,"AVISIT":"Week 8","AVISITN":8,"ADT":"2014-02-26","ADY":57,"AVAL":3,"DTYPE":null,"ANL01FL":"Y","TRT01A":"Xanomeline Low Dose","TRT01AN":2,"SAFFL":"Y","ITTFL":"Y","EFFFL":"Y","COMPFL":"Y","SITEID":"701","AGE":68,"AGEGR1":"65-80","SEX":"M","RACE":"WHITE","ARMCD":"Xan_Lo","TRTSDT":"2014-01-01","TRTEDT":"2014-07-09"},{"STUDYID":"CDISCPILOT01","USUBJID":"01-701-1097","DOMAIN":"ADQS","PARAMCD":"CIBIC","PARAM":"CIBIC+ Global Score","PARAMN":1,"AVISIT":"Week 12","AVISITN":12,"ADT":null,"ADY":null,"AVAL":3,"DTYPE":null,"ANL01FL":"Y","TRT01A":"Xanomeline Low Dose","TRT01AN":2,"SAFFL":"Y","ITTFL":"Y","EFFFL":"Y","COMPFL":"Y","SITEID":"701","AGE":68,"AGEGR1":"65-80","SEX":"M","RACE":"WHITE","ARMCD":"Xan_Lo","TRTSDT":"2014-01-01","TRTEDT":"2014-07-09"},{"STUDYID":"CDISCPILOT01","USUBJID":"01-701-1097","DOMAIN":"ADQS","PARAMCD":"CIBIC","PARAM":"CIBIC+ Global Score","PARAMN":1,"AVISIT":"Week 16","AVISITN":16,"ADT":"2014-04-23","ADY":113,"AVAL":4,"DTYPE":null,"ANL01FL":"Y","TRT01A":"Xanomeline Low Dose","TRT01AN":2,"SAFFL":"Y","ITTFL":"Y","EFFFL":"Y","COMPFL":"Y","SITEID":"701","AGE":68,"AGEGR1":"65-80","SEX":"M","RACE":"WHITE","ARMCD":"Xan_Lo","TRTSDT":"2014-01-01","TRTEDT":"2014-07-09"},{"STUDYID":"CDISCPILOT01","USUBJID":"01-701-1097","DOMAIN":"ADQS","PARAMCD":"CIBIC","PARAM":"CIBIC+ Global Score","PARAMN":1,"AVISIT":"Week 20","AVISITN":20,"ADT":null,"ADY":null,"AVAL":4,"DTYPE":null,"ANL01FL":"Y","TRT01A":"Xanomeline Low Dose","TRT01AN":2,"SAFFL":"Y","ITTFL":"Y","EFFFL":"Y","COMPFL":"Y","SITEID":"701","AGE":68,"AGEGR1":"65-80","SEX":"M","RACE":"WHITE","ARMCD":"Xan_Lo","TRTSDT":"2014-01-01","TRTEDT":"2014-07-09"},{"STUDYID":"CDISCPILOT01","USUBJID":"01-701-1097","DOMAIN":"ADQS","PARAMCD":"CIBIC","PARAM":"CIBIC+ Global Score","PARAMN":1,"AVISIT":"Week 24","AVISITN":24,"ADT":"2014-06-18","ADY":169,"AVAL":3,"DTYPE":null,"ANL01FL":"Y","TRT01A":"Xanomeline Low Dose","TRT01AN":2,"SAFFL":"Y","ITTFL":"Y","EFFFL":"Y","COMPFL":"Y","SITEID":"701","AGE":68,"AGEGR1":"65-80","SEX":"M","RACE":"WHITE","ARMCD":"Xan_Lo","TRTSDT":"2014-01-01","TRTEDT":"2014-07-09"},{"STUDYID":"CDISCPILOT01","USUBJID":"01-701-1097","DOMAIN":"ADQS","PARAMCD":"CIBIC","PARAM":"CIBIC+ Global Score","PARAMN":1,"AVISIT":"Week 26","AVISITN":26,"ADT":null,"ADY":null,"AVAL":3,"DTYPE":null,"ANL01FL":"Y","TRT01A":"Xanomeline Low Dose","TRT01AN":2,"SAFFL":"Y","ITTFL":"Y","EFFFL":"Y","COMPFL":"Y","SITEID":"701","AGE":68,"AGEGR1":"65-80","SEX":"M","RACE":"WHITE","ARMCD":"Xan_Lo","TRTSDT":"2014-01-01","TRTEDT":"2014-07-09"},{"STUDYID":"CDISCPILOT01","USUBJID":"01-701-1111","DOMAIN":"ADQS","PARAMCD":"CIBIC","PARAM":"CIBIC+ Global Score","PARAMN":1,"AVISIT":"Week 2","AVISITN":2,"ADT":"2012-09-17","ADY":11,"AVAL":4,"DTYPE":null,"ANL01FL":"Y","TRT01A":"Xanomeline Low Dose","TRT01AN":2,"SAFFL":"Y","ITTFL":"Y","EFFFL":"Y","COMPFL":"N","SITEID":"701","AGE":81,"AGEGR1":">80","SEX":"F","RACE":"WHITE","ARMCD":"Xan_Lo","TRTSDT":"2012-09-07","TRTEDT":"2012-09-16"},{"STUDYID":"CDISCPILOT01","USUBJID":"01-701-1111","DOMAIN":"ADQS","PARAMCD":"CIBIC","PARAM":"CIBIC+ Global Score","PARAMN":1,"AVISIT":"Week 4","AVISITN":4,"ADT":null,"ADY":null,"AVAL":4,"DTYPE":null,"ANL01FL":"Y","TRT01A":"Xanomeline Low Dose","TRT01AN":2,"SAFFL":"Y","ITTFL":"Y","EFFFL":"Y","COMPFL":"N","SITEID":"701","AGE":81,"AGEGR1":">80","SEX":"F","RACE":"WHITE","ARMCD":"Xan_Lo","TRTSDT":"2012-09-07","TRTEDT":"2012-09-16"},{"STUDYID":"CDISCPILOT01","USUBJID":"01-701-1111","DOMAIN":"ADQS","PARAMCD":"CIBIC","PARAM":"CIBIC+ Global Score","PARAMN":1,"AVISIT":"Week 6","AVISITN":6,"ADT":null,"ADY":null,"AVAL":4,"DTYPE":null,"ANL01FL":"Y","TRT01A":"Xanomeline Low Dose","TRT01AN":2,"SAFFL":"Y","ITTFL":"Y","EFFFL":"Y","COMPFL":"N","SITEID":"701","AGE":81,"AGEGR1":">80","SEX":"F","RACE":"WHITE","ARMCD":"Xan_Lo","TRTSDT":"2012-09-07","TRTEDT":"2012-09-16"},{"STUDYID":"CDISCPILOT01","USUBJID":"01-701-1111","DOMAIN":"ADQS","PARAMCD":"CIBIC","PARAM":"CIBIC+ Global Score","PARAMN":1,"AVISIT":"Week 8","AVISITN":8,"ADT":null,"ADY":null,"AVAL":4,"DTYPE":"LOCF","ANL01FL":"Y","TRT01A":"Xanomeline Low Dose","TRT01AN":2,"SAFFL":"Y","ITTFL":"Y","EFFFL":"Y","COMPFL":"N","SITEID":"701","AGE":81,"AGEGR1":">80","SEX":"F","RACE":"WHITE","ARMCD":"Xan_Lo","TRTSDT":"2012-09-07","TRTEDT":"2012-09-16"},{"STUDYID":"CDISCPILOT01","USUBJID":"01-701-1111","DOMAIN":"ADQS","PARAMCD":"CIBIC","PARAM":"CIBIC+ Global Score","PARAMN":1,"AVISIT":"Week 12","AVISITN":12,"ADT":null,"ADY":null,"AVAL":4,"DTYPE":null,"ANL01FL":"Y","TRT01A":"Xanomeline Low Dose","TRT01AN":2,"SAFFL":"Y","ITTFL":"Y","EFFFL":"Y","COMPFL":"N","SITEID":"701","AGE":81,"AGEGR1":">80","SEX":"F","RACE":"WHITE","ARMCD":"Xan_Lo","TRTSDT":"2012-09-07","TRTEDT":"2012-09-16"},{"STUDYID":"CDISCPILOT01","USUBJID":"01-701-1111","DOMAIN":"ADQS","PARAMCD":"CIBIC","PARAM":"CIBIC+ Global Score","PARAMN":1,"AVISIT":"Week 16","AVISITN":16,"ADT":null,"ADY":null,"AVAL":4,"DTYPE":"LOCF","ANL01FL":"Y","TRT01A":"Xanomeline Low Dose","TRT01AN":2,"SAFFL":"Y","ITTFL":"Y","EFFFL":"Y","COMPFL":"N","SITEID":"701","AGE":81,"AGEGR1":">80","SEX":"F","RACE":"WHITE","ARMCD":"Xan_Lo","TRTSDT":"2012-09-07","TRTEDT":"2012-09-16"},{"STUDYID":"CDISCPILOT01","USUBJID":"01-701-1111","DOMAIN":"ADQS","PARAMCD":"CIBIC","PARAM":"CIBIC+ Global Score","PARAMN":1,"AVISIT":"Week 20","AVISITN":20,"ADT":null,"ADY":null,"AVAL":4,"DTYPE":null,"ANL01FL":"Y","TRT01A":"Xanomeline Low Dose","TRT01AN":2,"SAFFL":"Y","ITTFL":"Y","EFFFL":"Y","COMPFL":"N","SITEID":"701","AGE":81,"AGEGR1":">80","SEX":"F","RACE":"WHITE","ARMCD":"Xan_Lo","TRTSDT":"2012-09-07","TRTEDT":"2012-09-16"},{"STUDYID":"CDISCPILOT01","USUBJID":"01-701-1111","DOMAIN":"ADQS","PARAMCD":"CIBIC","PARAM":"CIBIC+ Global Score","PARAMN":1,"AVISIT":"Week 24","AVISITN":24,"ADT":"2013-02-22","ADY":169,"AVAL":5,"DTYPE":null,"ANL01FL":"Y","TRT01A":"Xanomeline Low Dose","TRT01AN":2,"SAFFL":"Y","ITTFL":"Y","EFFFL":"Y","COMPFL":"N","SITEID":"701","AGE":81,"AGEGR1":">80","SEX":"F","RACE":"WHITE","ARMCD":"Xan_Lo","TRTSDT":"2012-09-07","TRTEDT":"2012-09-16"},{"STUDYID":"CDISCPILOT01","USUBJID":"01-701-1111","DOMAIN":"ADQS","PARAMCD":"CIBIC","PARAM":"CIBIC+ Global Score","PARAMN":1,"AVISIT":"Week 26","AVISITN":26,"ADT":null,"ADY":null,"AVAL":5,"DTYPE":null,"ANL01FL":"Y","TRT01A":"Xanomeline Low Dose","TRT01AN":2,"SAFFL":"Y","ITTFL":"Y","EFFFL":"Y","COMPFL":"N","SITEID":"701","AGE":81,"AGEGR1":">80","SEX":"F","RACE":"WHITE","ARMCD":"Xan_Lo","TRTSDT":"2012-09-07","TRTEDT":"2012-09-16"},{"STUDYID":"CDISCPILOT01","USUBJID":"01-701-1115","DOMAIN":"ADQS","PARAMCD":"CIBIC","PARAM":"CIBIC+ Global Score","PARAMN":1,"AVISIT":"Week 2","AVISITN":2,"ADT":null,"ADY":null,"AVAL":null,"DTYPE":null,"ANL01FL":"Y","TRT01A":"Xanomeline Low Dose","TRT01AN":2,"SAFFL":"Y","ITTFL":"Y","EFFFL":"Y","COMPFL":"N","SITEID":"701","AGE":84,"AGEGR1":">80","SEX":"M","RACE":"WHITE","ARMCD":"Xan_Lo","TRTSDT":"2012-11-30","TRTEDT":"2013-01-23"},{"STUDYID":"CDISCPILOT01","USUBJID":"01-701-1115","DOMAIN":"ADQS","PARAMCD":"CIBIC","PARAM":"CIBIC+ Global Score","PARAMN":1,"AVISIT":"Week 4","AVISITN":4,"ADT":null,"ADY":null,"AVAL":null,"DTYPE":null,"ANL01FL":"Y","TRT01A":"Xanomeline Low Dose","TRT01AN":2,"SAFFL":"Y","ITTFL":"Y","EFFFL":"Y","COMPFL":"N","SITEID":"701","AGE":84,"AGEGR1":">80","SEX":"M","RACE":"WHITE","ARMCD":"Xan_Lo","TRTSDT":"2012-11-30","TRTEDT":"2013-01-23"},{"STUDYID":"CDISCPILOT01","USUBJID":"01-701-1115","DOMAIN":"ADQS","PARAMCD":"CIBIC","PARAM":"CIBIC+ Global Score","PARAMN":1,"AVISIT":"Week 6","AVISITN":6,"ADT":null,"ADY":null,"AVAL":null,"DTYPE":null,"ANL01FL":"Y","TRT01A":"Xanomeline Low Dose","TRT01AN":2,"SAFFL":"Y","ITTFL":"Y","EFFFL":"Y","COMPFL":"N","SITEID":"701","AGE":84,"AGEGR1":">80","SEX":"M","RACE":"WHITE","ARMCD":"Xan_Lo","TRTSDT":"2012-11-30","TRTEDT":"2013-01-23"},{"STUDYID":"CDISCPILOT01","USUBJID":"01-701-1115","DOMAIN":"ADQS","PARAMCD":"CIBIC","PARAM":"CIBIC+ Global Score","PARAMN":1,"AVISIT":"Week 8","AVISITN":8,"ADT":"2013-01-23","ADY":55,"AVAL":4,"DTYPE":null,"ANL01FL":"Y","TRT01A":"Xanomeline Low Dose","TRT01AN":2,"SAFFL":"Y","ITTFL":"Y","EFFFL":"Y","COMPFL":"N","SITEID":"701","AGE":84,"AGEGR1":">80","SEX":"M","RACE":"WHITE","ARMCD":"Xan_Lo","TRTSDT":"2012-11-30","TRTEDT":"2013-01-23"},{"STUDYID":"CDISCPILOT01","USUBJID":"01-701-1115","DOMAIN":"ADQS","PARAMCD":"CIBIC","PARAM":"CIBIC+ Global Score","PARAMN":1,"AVISIT":"Week 12","AVISITN":12,"ADT":null,"ADY":null,"AVAL":4,"DTYPE":null,"ANL01FL":"Y","TRT01A":"Xanomeline Low Dose","TRT01AN":2,"SAFFL":"Y","ITTFL":"Y","EFFFL":"Y","COMPFL":"N","SITEID":"701","AGE":84,"AGEGR1":">80","SEX":"M","RACE":"WHITE","ARMCD":"Xan_Lo","TRTSDT":"2012-11-30","TRTEDT":"2013-01-23"},{"STUDYID":"CDISCPILOT01","USUBJID":"01-701-1115","DOMAIN":"ADQS","PARAMCD":"CIBIC","PARAM":"CIBIC+ Global Score","PARAMN":1,"AVISIT":"Week 16","AVISITN":16,"ADT":null,"ADY":null,"AVAL":4,"DTYPE":"LOCF","ANL01FL":"Y","TRT01A":"Xanomeline Low Dose","TRT01AN":2,"SAFFL":"Y","ITTFL":"Y","EFFFL":"Y","COMPFL":"N","SITEID":"701","AGE":84,"AGEGR1":">80","SEX":"M","RACE":"WHITE","ARMCD":"Xan_Lo","TRTSDT":"2012-11-30","TRTEDT":"2013-01-23"},{"STUDYID":"CDISCPILOT01","USUBJID":"01-701-1115","DOMAIN":"ADQS","PARAMCD":"CIBIC","PARAM":"CIBIC+ Global Score","PARAMN":1,"AVISIT":"Week 20","AVISITN":20,"ADT":null,"ADY":null,"AVAL":4,"DTYPE":null,"ANL01FL":"Y","TRT01A":"Xanomeline Low Dose","TRT01AN":2,"SAFFL":"Y","ITTFL":"Y","EFFFL":"Y","COMPFL":"N","SITEID":"701","AGE":84,"AGEGR1":">80","SEX":"M","RACE":"WHITE","ARMCD":"Xan_Lo","TRTSDT":"2012-11-30","TRTEDT":"2013-01-23"},{"STUDYID":"CDISCPILOT01","USUBJID":"01-701-1115","DOMAIN":"ADQS","PARAMCD":"CIBIC","PARAM":"CIBIC+ Global Score","PARAMN":1,"AVISIT":"Week 24","AVISITN":24,"ADT":"2013-05-20","ADY":172,"AVAL":5,"DTYPE":null,"ANL01FL":"Y","TRT01A":"Xanomeline Low Dose","TRT01AN":2,"SAFFL":"Y","ITTFL":"Y","EFFFL":"Y","COMPFL":"N","SITEID":"701","AGE":84,"AGEGR1":">80","SEX":"M","RACE":"WHITE","ARMCD":"Xan_Lo","TRTSDT":"2012-11-30","TRTEDT":"2013-01-23"},{"STUDYID":"CDISCPILOT01","USUBJID":"01-701-1115","DOMAIN":"ADQS","PARAMCD":"CIBIC","PARAM":"CIBIC+ Global Score","PARAMN":1,"AVISIT":"Week 26","AVISITN":26,"ADT":null,"ADY":null,"AVAL":5,"DTYPE":null,"ANL01FL":"Y","TRT01A":"Xanomeline Low Dose","TRT01AN":2,"SAFFL":"Y","ITTFL":"Y","EFFFL":"Y","COMPFL":"N","SITEID":"701","AGE":84,"AGEGR1":">80","SEX":"M","RACE":"WHITE","ARMCD":"Xan_Lo","TRTSDT":"2012-11-30","TRTEDT":"2013-01-23"},{"STUDYID":"CDISCPILOT01","USUBJID":"01-701-1118","DOMAIN":"ADQS","PARAMCD":"CIBIC","PARAM":"CIBIC+ Global Score","PARAMN":1,"AVISIT":"Week 2","AVISITN":2,"ADT":null,"ADY":null,"AVAL":null,"DTYPE":null,"ANL01FL":"Y","TRT01A":"Placebo","TRT01AN":1,"SAFFL":"Y","ITTFL":"Y","EFFFL":"Y","COMPFL":"Y","SITEID":"701","AGE":52,"AGEGR1":"<65","SEX":"M","RACE":"WHITE","ARMCD":"Pbo","TRTSDT":"2014-03-12","TRTEDT":"2014-09-09"},{"STUDYID":"CDISCPILOT01","USUBJID":"01-701-1118","DOMAIN":"ADQS","PARAMCD":"CIBIC","PARAM":"CIBIC+ Global Score","PARAMN":1,"AVISIT":"Week 4","AVISITN":4,"ADT":null,"ADY":null,"AVAL":null,"DTYPE":null,"ANL01FL":"Y","TRT01A":"Placebo","TRT01AN":1,"SAFFL":"Y","ITTFL":"Y","EFFFL":"Y","COMPFL":"Y","SITEID":"701","AGE":52,"AGEGR1":"<65","SEX":"M","RACE":"WHITE","ARMCD":"Pbo","TRTSDT":"2014-03-12","TRTEDT":"2014-09-09"},{"STUDYID":"CDISCPILOT01","USUBJID":"01-701-1118","DOMAIN":"ADQS","PARAMCD":"CIBIC","PARAM":"CIBIC+ Global Score","PARAMN":1,"AVISIT":"Week 6","AVISITN":6,"ADT":null,"ADY":null,"AVAL":null,"DTYPE":null,"ANL01FL":"Y","TRT01A":"Placebo","TRT01AN":1,"SAFFL":"Y","ITTFL":"Y","EFFFL":"Y","COMPFL":"Y","SITEID":"701","AGE":52,"AGEGR1":"<65","SEX":"M","RACE":"WHITE","ARMCD":"Pbo","TRTSDT":"2014-03-12","TRTEDT":"2014-09-09"},{"STUDYID":"CDISCPILOT01","USUBJID":"01-701-1118","DOMAIN":"ADQS","PARAMCD":"CIBIC","PARAM":"CIBIC+ Global Score","PARAMN":1,"AVISIT":"Week 8","AVISITN":8,"ADT":"2014-05-08","ADY":58,"AVAL":4,"DTYPE":null,"ANL01FL":"Y","TRT01A":"Placebo","TRT01AN":1,"SAFFL":"Y","ITTFL":"Y","EFFFL":"Y","COMPFL":"Y","SITEID":"701","AGE":52,"AGEGR1":"<65","SEX":"M","RACE":"WHITE","ARMCD":"Pbo","TRTSDT":"2014-03-12","TRTEDT":"2014-09-09"},{"STUDYID":"CDISCPILOT01","USUBJID":"01-701-1118","DOMAIN":"ADQS","PARAMCD":"CIBIC","PARAM":"CIBIC+ Global Score","PARAMN":1,"AVISIT":"Week 12","AVISITN":12,"ADT":null,"ADY":null,"AVAL":4,"DTYPE":null,"ANL01FL":"Y","TRT01A":"Placebo","TRT01AN":1,"SAFFL":"Y","ITTFL":"Y","EFFFL":"Y","COMPFL":"Y","SITEID":"701","AGE":52,"AGEGR1":"<65","SEX":"M","RACE":"WHITE","ARMCD":"Pbo","TRTSDT":"2014-03-12","TRTEDT":"2014-09-09"},{"STUDYID":"CDISCPILOT01","USUBJID":"01-701-1118","DOMAIN":"ADQS","PARAMCD":"CIBIC","PARAM":"CIBIC+ Global Score","PARAMN":1,"AVISIT":"Week 16","AVISITN":16,"ADT":"2014-07-02","ADY":113,"AVAL":4,"DTYPE":null,"ANL01FL":"Y","TRT01A":"Placebo","TRT01AN":1,"SAFFL":"Y","ITTFL":"Y","EFFFL":"Y","COMPFL":"Y","SITEID":"701","AGE":52,"AGEGR1":"<65","SEX":"M","RACE":"WHITE","ARMCD":"Pbo","TRTSDT":"2014-03-12","TRTEDT":"2014-09-09"},{"STUDYID":"CDISCPILOT01","USUBJID":"01-701-1118","DOMAIN":"ADQS","PARAMCD":"CIBIC","PARAM":"CIBIC+ Global Score","PARAMN":1,"AVISIT":"Week 20","AVISITN":20,"ADT":null,"ADY":null,"AVAL":4,"DTYPE":null,"ANL01FL":"Y","TRT01A":"Placebo","TRT01AN":1,"SAFFL":"Y","ITTFL":"Y","EFFFL":"Y","COMPFL":"Y","SITEID":"701","AGE":52,"AGEGR1":"<65","SEX":"M","RACE":"WHITE","ARMCD":"Pbo","TRTSDT":"2014-03-12","TRTEDT":"2014-09-09"},{"STUDYID":"CDISCPILOT01","USUBJID":"01-701-1118","DOMAIN":"ADQS","PARAMCD":"CIBIC","PARAM":"CIBIC+ Global Score","PARAMN":1,"AVISIT":"Week 24","AVISITN":24,"ADT":"2014-08-27","ADY":169,"AVAL":4,"DTYPE":null,"ANL01FL":"Y","TRT01A":"Placebo","TRT01AN":1,"SAFFL":"Y","ITTFL":"Y","EFFFL":"Y","COMPFL":"Y","SITEID":"701","AGE":52,"AGEGR1":"<65","SEX":"M","RACE":"WHITE","ARMCD":"Pbo","TRTSDT":"2014-03-12","TRTEDT":"2014-09-09"},{"STUDYID":"CDISCPILOT01","USUBJID":"01-701-1118","DOMAIN":"ADQS","PARAMCD":"CIBIC","PARAM":"CIBIC+ Global Score","PARAMN":1,"AVISIT":"Week 26","AVISITN":26,"ADT":null,"ADY":null,"AVAL":4,"DTYPE":null,"ANL01FL":"Y","TRT01A":"Placebo","TRT01AN":1,"SAFFL":"Y","ITTFL":"Y","EFFFL":"Y","COMPFL":"Y","SITEID":"701","AGE":52,"AGEGR1":"<65","SEX":"M","RACE":"WHITE","ARMCD":"Pbo","TRTSDT":"2014-03-12","TRTEDT":"2014-09-09"},{"STUDYID":"CDISCPILOT01","USUBJID":"01-701-1130","DOMAIN":"ADQS","PARAMCD":"CIBIC","PARAM":"CIBIC+ Global Score","PARAMN":1,"AVISIT":"Week 2","AVISITN":2,"ADT":null,"ADY":null,"AVAL":null,"DTYPE":null,"ANL01FL":"Y","TRT01A":"Placebo","TRT01AN":1,"SAFFL":"Y","ITTFL":"Y","EFFFL":"Y","COMPFL":"Y","SITEID":"701","AGE":84,"AGEGR1":">80","SEX":"M","RACE":"WHITE","ARMCD":"Pbo","TRTSDT":"2014-02-15","TRTEDT":"2014-08-16"},{"STUDYID":"CDISCPILOT01","USUBJID":"01-701-1130","DOMAIN":"ADQS","PARAMCD":"CIBIC","PARAM":"CIBIC+ Global Score","PARAMN":1,"AVISIT":"Week 4","AVISITN":4,"ADT":null,"ADY":null,"AVAL":null,"DTYPE":null,"ANL01FL":"Y","TRT01A":"Placebo","TRT01AN":1,"SAFFL":"Y","ITTFL":"Y","EFFFL":"Y","COMPFL":"Y","SITEID":"701","AGE":84,"AGEGR1":">80","SEX":"M","RACE":"WHITE","ARMCD":"Pbo","TRTSDT":"2014-02-15","TRTEDT":"2014-08-16"},{"STUDYID":"CDISCPILOT01","USUBJID":"01-701-1130","DOMAIN":"ADQS","PARAMCD":"CIBIC","PARAM":"CIBIC+ Global Score","PARAMN":1,"AVISIT":"Week 6","AVISITN":6,"ADT":null,"ADY":null,"AVAL":null,"DTYPE":null,"ANL01FL":"Y","TRT01A":"Placebo","TRT01AN":1,"SAFFL":"Y","ITTFL":"Y","EFFFL":"Y","COMPFL":"Y","SITEID":"701","AGE":84,"AGEGR1":">80","SEX":"M","RACE":"WHITE","ARMCD":"Pbo","TRTSDT":"2014-02-15","TRTEDT":"2014-08-16"},{"STUDYID":"CDISCPILOT01","USUBJID":"01-701-1130","DOMAIN":"ADQS","PARAMCD":"CIBIC","PARAM":"CIBIC+ Global Score","PARAMN":1,"AVISIT":"Week 8","AVISITN":8,"ADT":"2014-04-12","ADY":57,"AVAL":3,"DTYPE":null,"ANL01FL":"Y","TRT01A":"Placebo","TRT01AN":1,"SAFFL":"Y","ITTFL":"Y","EFFFL":"Y","COMPFL":"Y","SITEID":"701","AGE":84,"AGEGR1":">80","SEX":"M","RACE":"WHITE","ARMCD":"Pbo","TRTSDT":"2014-02-15","TRTEDT":"2014-08-16"},{"STUDYID":"CDISCPILOT01","USUBJID":"01-701-1130","DOMAIN":"ADQS","PARAMCD":"CIBIC","PARAM":"CIBIC+ Global Score","PARAMN":1,"AVISIT":"Week 12","AVISITN":12,"ADT":null,"ADY":null,"AVAL":3,"DTYPE":null,"ANL01FL":"Y","TRT01A":"Placebo","TRT01AN":1,"SAFFL":"Y","ITTFL":"Y","EFFFL":"Y","COMPFL":"Y","SITEID":"701","AGE":84,"AGEGR1":">80","SEX":"M","RACE":"WHITE","ARMCD":"Pbo","TRTSDT":"2014-02-15","TRTEDT":"2014-08-16"},{"STUDYID":"CDISCPILOT01","USUBJID":"01-701-1130","DOMAIN":"ADQS","PARAMCD":"CIBIC","PARAM":"CIBIC+ Global Score","PARAMN":1,"AVISIT":"Week 16","AVISITN":16,"ADT":"2014-06-07","ADY":113,"AVAL":3,"DTYPE":null,"ANL01FL":"Y","TRT01A":"Placebo","TRT01AN":1,"SAFFL":"Y","ITTFL":"Y","EFFFL":"Y","COMPFL":"Y","SITEID":"701","AGE":84,"AGEGR1":">80","SEX":"M","RACE":"WHITE","ARMCD":"Pbo","TRTSDT":"2014-02-15","TRTEDT":"2014-08-16"},{"STUDYID":"CDISCPILOT01","USUBJID":"01-701-1130","DOMAIN":"ADQS","PARAMCD":"CIBIC","PARAM":"CIBIC+ Global Score","PARAMN":1,"AVISIT":"Week 20","AVISITN":20,"ADT":null,"ADY":null,"AVAL":3,"DTYPE":null,"ANL01FL":"Y","TRT01A":"Placebo","TRT01AN":1,"SAFFL":"Y","ITTFL":"Y","EFFFL":"Y","COMPFL":"Y","SITEID":"701","AGE":84,"AGEGR1":">80","SEX":"M","RACE":"WHITE","ARMCD":"Pbo","TRTSDT":"2014-02-15","TRTEDT":"2014-08-16"},{"STUDYID":"CDISCPILOT01","USUBJID":"01-701-1130","DOMAIN":"ADQS","PARAMCD":"CIBIC","PARAM":"CIBIC+ Global Score","PARAMN":1,"AVISIT":"Week 24","AVISITN":24,"ADT":"2014-08-02","ADY":169,"AVAL":3,"DTYPE":null,"ANL01FL":"Y","TRT01A":"Placebo","TRT01AN":1,"SAFFL":"Y","ITTFL":"Y","EFFFL":"Y","COMPFL":"Y","SITEID":"701","AGE":84,"AGEGR1":">80","SEX":"M","RACE":"WHITE","ARMCD":"Pbo","TRTSDT":"2014-02-15","TRTEDT":"2014-08-16"},{"STUDYID":"CDISCPILOT01","USUBJID":"01-701-1130","DOMAIN":"ADQS","PARAMCD":"CIBIC","PARAM":"CIBIC+ Global Score","PARAMN":1,"AVISIT":"Week 26","AVISITN":26,"ADT":null,"ADY":null,"AVAL":3,"DTYPE":null,"ANL01FL":"Y","TRT01A":"Placebo","TRT01AN":1,"SAFFL":"Y","ITTFL":"Y","EFFFL":"Y","COMPFL":"Y","SITEID":"701","AGE":84,"AGEGR1":">80","SEX":"M","RACE":"WHITE","ARMCD":"Pbo","TRTSDT":"2014-02-15","TRTEDT":"2014-08-16"},{"STUDYID":"CDISCPILOT01","USUBJID":"01-701-1133","DOMAIN":"ADQS","PARAMCD":"CIBIC","PARAM":"CIBIC+ Global Score","PARAMN":1,"AVISIT":"Week 2","AVISITN":2,"ADT":null,"ADY":null,"AVAL":null,"DTYPE":null,"ANL01FL":"Y","TRT01A":"Xanomeline High Dose","TRT01AN":3,"SAFFL":"Y","ITTFL":"Y","EFFFL":"Y","COMPFL":"Y","SITEID":"701","AGE":81,"AGEGR1":">80","SEX":"F","RACE":"WHITE","ARMCD":"Xan_Hi","TRTSDT":"2012-10-28","TRTEDT":"2013-04-28"},{"STUDYID":"CDISCPILOT01","USUBJID":"01-701-1133","DOMAIN":"ADQS","PARAMCD":"CIBIC","PARAM":"CIBIC+ Global Score","PARAMN":1,"AVISIT":"Week 4","AVISITN":4,"ADT":null,"ADY":null,"AVAL":null,"DTYPE":null,"ANL01FL":"Y","TRT01A":"Xanomeline High Dose","TRT01AN":3,"SAFFL":"Y","ITTFL":"Y","EFFFL":"Y","COMPFL":"Y","SITEID":"701","AGE":81,"AGEGR1":">80","SEX":"F","RACE":"WHITE","ARMCD":"Xan_Hi","TRTSDT":"2012-10-28","TRTEDT":"2013-04-28"},{"STUDYID":"CDISCPILOT01","USUBJID":"01-701-1133","DOMAIN":"ADQS","PARAMCD":"CIBIC","PARAM":"CIBIC+ Global Score","PARAMN":1,"AVISIT":"Week 6","AVISITN":6,"ADT":null,"ADY":null,"AVAL":null,"DTYPE":null,"ANL01FL":"Y","TRT01A":"Xanomeline High Dose","TRT01AN":3,"SAFFL":"Y","ITTFL":"Y","EFFFL":"Y","COMPFL":"Y","SITEID":"701","AGE":81,"AGEGR1":">80","SEX":"F","RACE":"WHITE","ARMCD":"Xan_Hi","TRTSDT":"2012-10-28","TRTEDT":"2013-04-28"},{"STUDYID":"CDISCPILOT01","USUBJID":"01-701-1133","DOMAIN":"ADQS","PARAMCD":"CIBIC","PARAM":"CIBIC+ Global Score","PARAMN":1,"AVISIT":"Week 8","AVISITN":8,"ADT":"2012-12-24","ADY":58,"AVAL":4,"DTYPE":null,"ANL01FL":"Y","TRT01A":"Xanomeline High Dose","TRT01AN":3,"SAFFL":"Y","ITTFL":"Y","EFFFL":"Y","COMPFL":"Y","SITEID":"701","AGE":81,"AGEGR1":">80","SEX":"F","RACE":"WHITE","ARMCD":"Xan_Hi","TRTSDT":"2012-10-28","TRTEDT":"2013-04-28"},{"STUDYID":"CDISCPILOT01","USUBJID":"01-701-1133","DOMAIN":"ADQS","PARAMCD":"CIBIC","PARAM":"CIBIC+ Global Score","PARAMN":1,"AVISIT":"Week 12","AVISITN":12,"ADT":null,"ADY":null,"AVAL":4,"DTYPE":null,"ANL01FL":"Y","TRT01A":"Xanomeline High Dose","TRT01AN":3,"SAFFL":"Y","ITTFL":"Y","EFFFL":"Y","COMPFL":"Y","SITEID":"701","AGE":81,"AGEGR1":">80","SEX":"F","RACE":"WHITE","ARMCD":"Xan_Hi","TRTSDT":"2012-10-28","TRTEDT":"2013-04-28"},{"STUDYID":"CDISCPILOT01","USUBJID":"01-701-1133","DOMAIN":"ADQS","PARAMCD":"CIBIC","PARAM":"CIBIC+ Global Score","PARAMN":1,"AVISIT":"Week 16","AVISITN":16,"ADT":"2013-02-18","ADY":114,"AVAL":5,"DTYPE":null,"ANL01FL":"Y","TRT01A":"Xanomeline High Dose","TRT01AN":3,"SAFFL":"Y","ITTFL":"Y","EFFFL":"Y","COMPFL":"Y","SITEID":"701","AGE":81,"AGEGR1":">80","SEX":"F","RACE":"WHITE","ARMCD":"Xan_Hi","TRTSDT":"2012-10-28","TRTEDT":"2013-04-28"},{"STUDYID":"CDISCPILOT01","USUBJID":"01-701-1133","DOMAIN":"ADQS","PARAMCD":"CIBIC","PARAM":"CIBIC+ Global Score","PARAMN":1,"AVISIT":"Week 20","AVISITN":20,"ADT":null,"ADY":null,"AVAL":5,"DTYPE":null,"ANL01FL":"Y","TRT01A":"Xanomeline High Dose","TRT01AN":3,"SAFFL":"Y","ITTFL":"Y","EFFFL":"Y","COMPFL":"Y","SITEID":"701","AGE":81,"AGEGR1":">80","SEX":"F","RACE":"WHITE","ARMCD":"Xan_Hi","TRTSDT":"2012-10-28","TRTEDT":"2013-04-28"},{"STUDYID":"CDISCPILOT01","USUBJID":"01-701-1133","DOMAIN":"ADQS","PARAMCD":"CIBIC","PARAM":"CIBIC+ Global Score","PARAMN":1,"AVISIT":"Week 24","AVISITN":24,"ADT":"2013-04-18","ADY":173,"AVAL":5,"DTYPE":null,"ANL01FL":"Y","TRT01A":"Xanomeline High Dose","TRT01AN":3,"SAFFL":"Y","ITTFL":"Y","EFFFL":"Y","COMPFL":"Y","SITEID":"701","AGE":81,"AGEGR1":">80","SEX":"F","RACE":"WHITE","ARMCD":"Xan_Hi","TRTSDT":"2012-10-28","TRTEDT":"2013-04-28"},{"STUDYID":"CDISCPILOT01","USUBJID":"01-701-1133","DOMAIN":"ADQS","PARAMCD":"CIBIC","PARAM":"CIBIC+ Global Score","PARAMN":1,"AVISIT":"Week 26","AVISITN":26,"ADT":null,"ADY":null,"AVAL":5,"DTYPE":null,"ANL01FL":"Y","TRT01A":"Xanomeline High Dose","TRT01AN":3,"SAFFL":"Y","ITTFL":"Y","EFFFL":"Y","COMPFL":"Y","SITEID":"701","AGE":81,"AGEGR1":">80","SEX":"F","RACE":"WHITE","ARMCD":"Xan_Hi","TRTSDT":"2012-10-28","TRTEDT":"2013-04-28"},{"STUDYID":"CDISCPILOT01","USUBJID":"01-701-1146","DOMAIN":"ADQS","PARAMCD":"CIBIC","PARAM":"CIBIC+ Global Score","PARAMN":1,"AVISIT":"Week 2","AVISITN":2,"ADT":null,"ADY":null,"AVAL":null,"DTYPE":null,"ANL01FL":"Y","TRT01A":"Xanomeline High Dose","TRT01AN":3,"SAFFL":"Y","ITTFL":"Y","EFFFL":"Y","COMPFL":"N","SITEID":"701","AGE":75,"AGEGR1":"65-80","SEX":"F","RACE":"WHITE","ARMCD":"Xan_Hi","TRTSDT":"2013-05-20","TRTEDT":"2013-06-26"},{"STUDYID":"CDISCPILOT01","USUBJID":"01-701-1146","DOMAIN":"ADQS","PARAMCD":"CIBIC","PARAM":"CIBIC+ Global Score","PARAMN":1,"AVISIT":"Week 4","AVISITN":4,"ADT":null,"ADY":null,"AVAL":null,"DTYPE":null,"ANL01FL":"Y","TRT01A":"Xanomeline High Dose","TRT01AN":3,"SAFFL":"Y","ITTFL":"Y","EFFFL":"Y","COMPFL":"N","SITEID":"701","AGE":75,"AGEGR1":"65-80","SEX":"F","RACE":"WHITE","ARMCD":"Xan_Hi","TRTSDT":"2013-05-20","TRTEDT":"2013-06-26"},{"STUDYID":"CDISCPILOT01","USUBJID":"01-701-1146","DOMAIN":"ADQS","PARAMCD":"CIBIC","PARAM":"CIBIC+ Global Score","PARAMN":1,"AVISIT":"Week 6","AVISITN":6,"ADT":"2013-06-30","ADY":42,"AVAL":4,"DTYPE":null,"ANL01FL":"Y","TRT01A":"Xanomeline High Dose","TRT01AN":3,"SAFFL":"Y","ITTFL":"Y","EFFFL":"Y","COMPFL":"N","SITEID":"701","AGE":75,"AGEGR1":"65-80","SEX":"F","RACE":"WHITE","ARMCD":"Xan_Hi","TRTSDT":"2013-05-20","TRTEDT":"2013-06-26"},{"STUDYID":"CDISCPILOT01","USUBJID":"01-701-1146","DOMAIN":"ADQS","PARAMCD":"CIBIC","PARAM":"CIBIC+ Global Score","PARAMN":1,"AVISIT":"Week 8","AVISITN":8,"ADT":null,"ADY":null,"AVAL":4,"DTYPE":"LOCF","ANL01FL":"Y","TRT01A":"Xanomeline High Dose","TRT01AN":3,"SAFFL":"Y","ITTFL":"Y","EFFFL":"Y","COMPFL":"N","SITEID":"701","AGE":75,"AGEGR1":"65-80","SEX":"F","RACE":"WHITE","ARMCD":"Xan_Hi","TRTSDT":"2013-05-20","TRTEDT":"2013-06-26"},{"STUDYID":"CDISCPILOT01","USUBJID":"01-701-1146","DOMAIN":"ADQS","PARAMCD":"CIBIC","PARAM":"CIBIC+ Global Score","PARAMN":1,"AVISIT":"Week 12","AVISITN":12,"ADT":null,"ADY":null,"AVAL":4,"DTYPE":null,"ANL01FL":"Y","TRT01A":"Xanomeline High Dose","TRT01AN":3,"SAFFL":"Y","ITTFL":"Y","EFFFL":"Y","COMPFL":"N","SITEID":"701","AGE":75,"AGEGR1":"65-80","SEX":"F","RACE":"WHITE","ARMCD":"Xan_Hi","TRTSDT":"2013-05-20","TRTEDT":"2013-06-26"},{"STUDYID":"CDISCPILOT01","USUBJID":"01-701-1146","DOMAIN":"ADQS","PARAMCD":"CIBIC","PARAM":"CIBIC+ Global Score","PARAMN":1,"AVISIT":"Week 16","AVISITN":16,"ADT":null,"ADY":null,"AVAL":4,"DTYPE":"LOCF","ANL01FL":"Y","TRT01A":"Xanomeline High Dose","TRT01AN":3,"SAFFL":"Y","ITTFL":"Y","EFFFL":"Y","COMPFL":"N","SITEID":"701","AGE":75,"AGEGR1":"65-80","SEX":"F","RACE":"WHITE","ARMCD":"Xan_Hi","TRTSDT":"2013-05-20","TRTEDT":"2013-06-26"},{"STUDYID":"CDISCPILOT01","USUBJID":"01-701-1146","DOMAIN":"ADQS","PARAMCD":"CIBIC","PARAM":"CIBIC+ Global Score","PARAMN":1,"AVISIT":"Week 20","AVISITN":20,"ADT":null,"ADY":null,"AVAL":4,"DTYPE":null,"ANL01FL":"Y","TRT01A":"Xanomeline High Dose","TRT01AN":3,"SAFFL":"Y","ITTFL":"Y","EFFFL":"Y","COMPFL":"N","SITEID":"701","AGE":75,"AGEGR1":"65-80","SEX":"F","RACE":"WHITE","ARMCD":"Xan_Hi","TRTSDT":"2013-05-20","TRTEDT":"2013-06-26"},{"STUDYID":"CDISCPILOT01","USUBJID":"01-701-1146","DOMAIN":"ADQS","PARAMCD":"CIBIC","PARAM":"CIBIC+ Global Score","PARAMN":1,"AVISIT":"Week 24","AVISITN":24,"ADT":null,"ADY":null,"AVAL":4,"DTYPE":"LOCF","ANL01FL":"Y","TRT01A":"Xanomeline High Dose","TRT01AN":3,"SAFFL":"Y","ITTFL":"Y","EFFFL":"Y","COMPFL":"N","SITEID":"701","AGE":75,"AGEGR1":"65-80","SEX":"F","RACE":"WHITE","ARMCD":"Xan_Hi","TRTSDT":"2013-05-20","TRTEDT":"2013-06-26"},{"STUDYID":"CDISCPILOT01","USUBJID":"01-701-1146","DOMAIN":"ADQS","PARAMCD":"CIBIC","PARAM":"CIBIC+ Global Score","PARAMN":1,"AVISIT":"Week 26","AVISITN":26,"ADT":null,"ADY":null,"AVAL":4,"DTYPE":null,"ANL01FL":"Y","TRT01A":"Xanomeline High Dose","TRT01AN":3,"SAFFL":"Y","ITTFL":"Y","EFFFL":"Y","COMPFL":"N","SITEID":"701","AGE":75,"AGEGR1":"65-80","SEX":"F","RACE":"WHITE","ARMCD":"Xan_Hi","TRTSDT":"2013-05-20","TRTEDT":"2013-06-26"},{"STUDYID":"CDISCPILOT01","USUBJID":"01-701-1148","DOMAIN":"ADQS","PARAMCD":"CIBIC","PARAM":"CIBIC+ Global Score","PARAMN":1,"AVISIT":"Week 2","AVISITN":2,"ADT":null,"ADY":null,"AVAL":null,"DTYPE":null,"ANL01FL":"Y","TRT01A":"Xanomeline High Dose","TRT01AN":3,"SAFFL":"Y","ITTFL":"Y","EFFFL":"Y","COMPFL":"Y","SITEID":"701","AGE":57,"AGEGR1":"<65","SEX":"M","RACE":"WHITE","ARMCD":"Xan_Hi","TRTSDT":"2013-08-23","TRTEDT":"2014-02-20"},{"STUDYID":"CDISCPILOT01","USUBJID":"01-701-1148","DOMAIN":"ADQS","PARAMCD":"CIBIC","PARAM":"CIBIC+ Global Score","PARAMN":1,"AVISIT":"Week 4","AVISITN":4,"ADT":null,"ADY":null,"AVAL":null,"DTYPE":null,"ANL01FL":"Y","TRT01A":"Xanomeline High Dose","TRT01AN":3,"SAFFL":"Y","ITTFL":"Y","EFFFL":"Y","COMPFL":"Y","SITEID":"701","AGE":57,"AGEGR1":"<65","SEX":"M","RACE":"WHITE","ARMCD":"Xan_Hi","TRTSDT":"2013-08-23","TRTEDT":"2014-02-20"},{"STUDYID":"CDISCPILOT01","USUBJID":"01-701-1148","DOMAIN":"ADQS","PARAMCD":"CIBIC","PARAM":"CIBIC+ Global Score","PARAMN":1,"AVISIT":"Week 6","AVISITN":6,"ADT":null,"ADY":null,"AVAL":null,"DTYPE":null,"ANL01FL":"Y","TRT01A":"Xanomeline High Dose","TRT01AN":3,"SAFFL":"Y","ITTFL":"Y","EFFFL":"Y","COMPFL":"Y","SITEID":"701","AGE":57,"AGEGR1":"<65","SEX":"M","RACE":"WHITE","ARMCD":"Xan_Hi","TRTSDT":"2013-08-23","TRTEDT":"2014-02-20"},{"STUDYID":"CDISCPILOT01","USUBJID":"01-701-1148","DOMAIN":"ADQS","PARAMCD":"CIBIC","PARAM":"CIBIC+ Global Score","PARAMN":1,"AVISIT":"Week 8","AVISITN":8,"ADT":"2013-10-18","ADY":57,"AVAL":5,"DTYPE":null,"ANL01FL":"Y","TRT01A":"Xanomeline High Dose","TRT01AN":3,"SAFFL":"Y","ITTFL":"Y","EFFFL":"Y","COMPFL":"Y","SITEID":"701","AGE":57,"AGEGR1":"<65","SEX":"M","RACE":"WHITE","ARMCD":"Xan_Hi","TRTSDT":"2013-08-23","TRTEDT":"2014-02-20"},{"STUDYID":"CDISCPILOT01","USUBJID":"01-701-1148","DOMAIN":"ADQS","PARAMCD":"CIBIC","PARAM":"CIBIC+ Global Score","PARAMN":1,"AVISIT":"Week 12","AVISITN":12,"ADT":null,"ADY":null,"AVAL":5,"DTYPE":null,"ANL01FL":"Y","TRT01A":"Xanomeline High Dose","TRT01AN":3,"SAFFL":"Y","ITTFL":"Y","EFFFL":"Y","COMPFL":"Y","SITEID":"701","AGE":57,"AGEGR1":"<65","SEX":"M","RACE":"WHITE","ARMCD":"Xan_Hi","TRTSDT":"2013-08-23","TRTEDT":"2014-02-20"},{"STUDYID":"CDISCPILOT01","USUBJID":"01-701-1148","DOMAIN":"ADQS","PARAMCD":"CIBIC","PARAM":"CIBIC+ Global Score","PARAMN":1,"AVISIT":"Week 16","AVISITN":16,"ADT":"2013-12-13","ADY":113,"AVAL":4,"DTYPE":null,"ANL01FL":"Y","TRT01A":"Xanomeline High Dose","TRT01AN":3,"SAFFL":"Y","ITTFL":"Y","EFFFL":"Y","COMPFL":"Y","SITEID":"701","AGE":57,"AGEGR1":"<65","SEX":"M","RACE":"WHITE","ARMCD":"Xan_Hi","TRTSDT":"2013-08-23","TRTEDT":"2014-02-20"},{"STUDYID":"CDISCPILOT01","USUBJID":"01-701-1148","DOMAIN":"ADQS","PARAMCD":"CIBIC","PARAM":"CIBIC+ Global Score","PARAMN":1,"AVISIT":"Week 20","AVISITN":20,"ADT":null,"ADY":null,"AVAL":4,"DTYPE":null,"ANL01FL":"Y","TRT01A":"Xanomeline High Dose","TRT01AN":3,"SAFFL":"Y","ITTFL":"Y","EFFFL":"Y","COMPFL":"Y","SITEID":"701","AGE":57,"AGEGR1":"<65","SEX":"M","RACE":"WHITE","ARMCD":"Xan_Hi","TRTSDT":"2013-08-23","TRTEDT":"2014-02-20"},{"STUDYID":"CDISCPILOT01","USUBJID":"01-701-1148","DOMAIN":"ADQS","PARAMCD":"CIBIC","PARAM":"CIBIC+ Global Score","PARAMN":1,"AVISIT":"Week 24","AVISITN":24,"ADT":"2014-02-08","ADY":170,"AVAL":5,"DTYPE":null,"ANL01FL":"Y","TRT01A":"Xanomeline High Dose","TRT01AN":3,"SAFFL":"Y","ITTFL":"Y","EFFFL":"Y","COMPFL":"Y","SITEID":"701","AGE":57,"AGEGR1":"<65","SEX":"M","RACE":"WHITE","ARMCD":"Xan_Hi","TRTSDT":"2013-08-23","TRTEDT":"2014-02-20"},{"STUDYID":"CDISCPILOT01","USUBJID":"01-701-1148","DOMAIN":"ADQS","PARAMCD":"CIBIC","PARAM":"CIBIC+ Global Score","PARAMN":1,"AVISIT":"Week 26","AVISITN":26,"ADT":null,"ADY":null,"AVAL":5,"DTYPE":null,"ANL01FL":"Y","TRT01A":"Xanomeline High Dose","TRT01AN":3,"SAFFL":"Y","ITTFL":"Y","EFFFL":"Y","COMPFL":"Y","SITEID":"701","AGE":57,"AGEGR1":"<65","SEX":"M","RACE":"WHITE","ARMCD":"Xan_Hi","TRTSDT":"2013-08-23","TRTEDT":"2014-02-20"},{"STUDYID":"CDISCPILOT01","USUBJID":"01-701-1153","DOMAIN":"ADQS","PARAMCD":"CIBIC","PARAM":"CIBIC+ Global Score","PARAMN":1,"AVISIT":"Week 2","AVISITN":2,"ADT":null,"ADY":null,"AVAL":null,"DTYPE":null,"ANL01FL":"Y","TRT01A":"Placebo","TRT01AN":1,"SAFFL":"Y","ITTFL":"Y","EFFFL":"Y","COMPFL":"Y","SITEID":"701","AGE":79,"AGEGR1":"65-80","SEX":"F","RACE":"WHITE","ARMCD":"Pbo","TRTSDT":"2013-09-23","TRTEDT":"2014-03-16"},{"STUDYID":"CDISCPILOT01","USUBJID":"01-701-1153","DOMAIN":"ADQS","PARAMCD":"CIBIC","PARAM":"CIBIC+ Global Score","PARAMN":1,"AVISIT":"Week 4","AVISITN":4,"ADT":null,"ADY":null,"AVAL":null,"DTYPE":null,"ANL01FL":"Y","TRT01A":"Placebo","TRT01AN":1,"SAFFL":"Y","ITTFL":"Y","EFFFL":"Y","COMPFL":"Y","SITEID":"701","AGE":79,"AGEGR1":"65-80","SEX":"F","RACE":"WHITE","ARMCD":"Pbo","TRTSDT":"2013-09-23","TRTEDT":"2014-03-16"},{"STUDYID":"CDISCPILOT01","USUBJID":"01-701-1153","DOMAIN":"ADQS","PARAMCD":"CIBIC","PARAM":"CIBIC+ Global Score","PARAMN":1,"AVISIT":"Week 6","AVISITN":6,"ADT":null,"ADY":null,"AVAL":null,"DTYPE":null,"ANL01FL":"Y","TRT01A":"Placebo","TRT01AN":1,"SAFFL":"Y","ITTFL":"Y","EFFFL":"Y","COMPFL":"Y","SITEID":"701","AGE":79,"AGEGR1":"65-80","SEX":"F","RACE":"WHITE","ARMCD":"Pbo","TRTSDT":"2013-09-23","TRTEDT":"2014-03-16"},{"STUDYID":"CDISCPILOT01","USUBJID":"01-701-1153","DOMAIN":"ADQS","PARAMCD":"CIBIC","PARAM":"CIBIC+ Global Score","PARAMN":1,"AVISIT":"Week 8","AVISITN":8,"ADT":"2013-11-18","ADY":57,"AVAL":4,"DTYPE":null,"ANL01FL":"Y","TRT01A":"Placebo","TRT01AN":1,"SAFFL":"Y","ITTFL":"Y","EFFFL":"Y","COMPFL":"Y","SITEID":"701","AGE":79,"AGEGR1":"65-80","SEX":"F","RACE":"WHITE","ARMCD":"Pbo","TRTSDT":"2013-09-23","TRTEDT":"2014-03-16"},{"STUDYID":"CDISCPILOT01","USUBJID":"01-701-1153","DOMAIN":"ADQS","PARAMCD":"CIBIC","PARAM":"CIBIC+ Global Score","PARAMN":1,"AVISIT":"Week 12","AVISITN":12,"ADT":null,"ADY":null,"AVAL":4,"DTYPE":null,"ANL01FL":"Y","TRT01A":"Placebo","TRT01AN":1,"SAFFL":"Y","ITTFL":"Y","EFFFL":"Y","COMPFL":"Y","SITEID":"701","AGE":79,"AGEGR1":"65-80","SEX":"F","RACE":"WHITE","ARMCD":"Pbo","TRTSDT":"2013-09-23","TRTEDT":"2014-03-16"},{"STUDYID":"CDISCPILOT01","USUBJID":"01-701-1153","DOMAIN":"ADQS","PARAMCD":"CIBIC","PARAM":"CIBIC+ Global Score","PARAMN":1,"AVISIT":"Week 16","AVISITN":16,"ADT":"2014-01-08","ADY":108,"AVAL":4,"DTYPE":null,"ANL01FL":"Y","TRT01A":"Placebo","TRT01AN":1,"SAFFL":"Y","ITTFL":"Y","EFFFL":"Y","COMPFL":"Y","SITEID":"701","AGE":79,"AGEGR1":"65-80","SEX":"F","RACE":"WHITE","ARMCD":"Pbo","TRTSDT":"2013-09-23","TRTEDT":"2014-03-16"},{"STUDYID":"CDISCPILOT01","USUBJID":"01-701-1153","DOMAIN":"ADQS","PARAMCD":"CIBIC","PARAM":"CIBIC+ Global Score","PARAMN":1,"AVISIT":"Week 20","AVISITN":20,"ADT":null,"ADY":null,"AVAL":4,"DTYPE":null,"ANL01FL":"Y","TRT01A":"Placebo","TRT01AN":1,"SAFFL":"Y","ITTFL":"Y","EFFFL":"Y","COMPFL":"Y","SITEID":"701","AGE":79,"AGEGR1":"65-80","SEX":"F","RACE":"WHITE","ARMCD":"Pbo","TRTSDT":"2013-09-23","TRTEDT":"2014-03-16"},{"STUDYID":"CDISCPILOT01","USUBJID":"01-701-1153","DOMAIN":"ADQS","PARAMCD":"CIBIC","PARAM":"CIBIC+ Global Score","PARAMN":1,"AVISIT":"Week 24","AVISITN":24,"ADT":"2014-03-11","ADY":170,"AVAL":4,"DTYPE":null,"ANL01FL":"Y","TRT01A":"Placebo","TRT01AN":1,"SAFFL":"Y","ITTFL":"Y","EFFFL":"Y","COMPFL":"Y","SITEID":"701","AGE":79,"AGEGR1":"65-80","SEX":"F","RACE":"WHITE","ARMCD":"Pbo","TRTSDT":"2013-09-23","TRTEDT":"2014-03-16"},{"STUDYID":"CDISCPILOT01","USUBJID":"01-701-1153","DOMAIN":"ADQS","PARAMCD":"CIBIC","PARAM":"CIBIC+ Global Score","PARAMN":1,"AVISIT":"Week 26","AVISITN":26,"ADT":null,"ADY":null,"AVAL":4,"DTYPE":null,"ANL01FL":"Y","TRT01A":"Placebo","TRT01AN":1,"SAFFL":"Y","ITTFL":"Y","EFFFL":"Y","COMPFL":"Y","SITEID":"701","AGE":79,"AGEGR1":"65-80","SEX":"F","RACE":"WHITE","ARMCD":"Pbo","TRTSDT":"2013-09-23","TRTEDT":"2014-03-16"},{"STUDYID":"CDISCPILOT01","USUBJID":"01-701-1180","DOMAIN":"ADQS","PARAMCD":"CIBIC","PARAM":"CIBIC+ Global Score","PARAMN":1,"AVISIT":"Week 2","AVISITN":2,"ADT":null,"ADY":null,"AVAL":null,"DTYPE":null,"ANL01FL":"Y","TRT01A":"Xanomeline High Dose","TRT01AN":3,"SAFFL":"Y","ITTFL":"Y","EFFFL":"Y","COMPFL":"N","SITEID":"701","AGE":56,"AGEGR1":"<65","SEX":"M","RACE":"WHITE","ARMCD":"Xan_Hi","TRTSDT":"2013-02-12","TRTEDT":"2013-03-18"},{"STUDYID":"CDISCPILOT01","USUBJID":"01-701-1180","DOMAIN":"ADQS","PARAMCD":"CIBIC","PARAM":"CIBIC+ Global Score","PARAMN":1,"AVISIT":"Week 4","AVISITN":4,"ADT":null,"ADY":null,"AVAL":null,"DTYPE":null,"ANL01FL":"Y","TRT01A":"Xanomeline High Dose","TRT01AN":3,"SAFFL":"Y","ITTFL":"Y","EFFFL":"Y","COMPFL":"N","SITEID":"701","AGE":56,"AGEGR1":"<65","SEX":"M","RACE":"WHITE","ARMCD":"Xan_Hi","TRTSDT":"2013-02-12","TRTEDT":"2013-03-18"},{"STUDYID":"CDISCPILOT01","USUBJID":"01-701-1180","DOMAIN":"ADQS","PARAMCD":"CIBIC","PARAM":"CIBIC+ Global Score","PARAMN":1,"AVISIT":"Week 6","AVISITN":6,"ADT":"2013-03-23","ADY":40,"AVAL":5,"DTYPE":null,"ANL01FL":"Y","TRT01A":"Xanomeline High Dose","TRT01AN":3,"SAFFL":"Y","ITTFL":"Y","EFFFL":"Y","COMPFL":"N","SITEID":"701","AGE":56,"AGEGR1":"<65","SEX":"M","RACE":"WHITE","ARMCD":"Xan_Hi","TRTSDT":"2013-02-12","TRTEDT":"2013-03-18"},{"STUDYID":"CDISCPILOT01","USUBJID":"01-701-1180","DOMAIN":"ADQS","PARAMCD":"CIBIC","PARAM":"CIBIC+ Global Score","PARAMN":1,"AVISIT":"Week 8","AVISITN":8,"ADT":null,"ADY":null,"AVAL":5,"DTYPE":"LOCF","ANL01FL":"Y","TRT01A":"Xanomeline High Dose","TRT01AN":3,"SAFFL":"Y","ITTFL":"Y","EFFFL":"Y","COMPFL":"N","SITEID":"701","AGE":56,"AGEGR1":"<65","SEX":"M","RACE":"WHITE","ARMCD":"Xan_Hi","TRTSDT":"2013-02-12","TRTEDT":"2013-03-18"},{"STUDYID":"CDISCPILOT01","USUBJID":"01-701-1180","DOMAIN":"ADQS","PARAMCD":"CIBIC","PARAM":"CIBIC+ Global Score","PARAMN":1,"AVISIT":"Week 12","AVISITN":12,"ADT":null,"ADY":null,"AVAL":5,"DTYPE":null,"ANL01FL":"Y","TRT01A":"Xanomeline High Dose","TRT01AN":3,"SAFFL":"Y","ITTFL":"Y","EFFFL":"Y","COMPFL":"N","SITEID":"701","AGE":56,"AGEGR1":"<65","SEX":"M","RACE":"WHITE","ARMCD":"Xan_Hi","TRTSDT":"2013-02-12","TRTEDT":"2013-03-18"},{"STUDYID":"CDISCPILOT01","USUBJID":"01-701-1180","DOMAIN":"ADQS","PARAMCD":"CIBIC","PARAM":"CIBIC+ Global Score","PARAMN":1,"AVISIT":"Week 16","AVISITN":16,"ADT":null,"ADY":null,"AVAL":5,"DTYPE":"LOCF","ANL01FL":"Y","TRT01A":"Xanomeline High Dose","TRT01AN":3,"SAFFL":"Y","ITTFL":"Y","EFFFL":"Y","COMPFL":"N","SITEID":"701","AGE":56,"AGEGR1":"<65","SEX":"M","RACE":"WHITE","ARMCD":"Xan_Hi","TRTSDT":"2013-02-12","TRTEDT":"2013-03-18"},{"STUDYID":"CDISCPILOT01","USUBJID":"01-701-1180","DOMAIN":"ADQS","PARAMCD":"CIBIC","PARAM":"CIBIC+ Global Score","PARAMN":1,"AVISIT":"Week 20","AVISITN":20,"ADT":null,"ADY":null,"AVAL":5,"DTYPE":null,"ANL01FL":"Y","TRT01A":"Xanomeline High Dose","TRT01AN":3,"SAFFL":"Y","ITTFL":"Y","EFFFL":"Y","COMPFL":"N","SITEID":"701","AGE":56,"AGEGR1":"<65","SEX":"M","RACE":"WHITE","ARMCD":"Xan_Hi","TRTSDT":"2013-02-12","TRTEDT":"2013-03-18"},{"STUDYID":"CDISCPILOT01","USUBJID":"01-701-1180","DOMAIN":"ADQS","PARAMCD":"CIBIC","PARAM":"CIBIC+ Global Score","PARAMN":1,"AVISIT":"Week 24","AVISITN":24,"ADT":null,"ADY":null,"AVAL":5,"DTYPE":"LOCF","ANL01FL":"Y","TRT01A":"Xanomeline High Dose","TRT01AN":3,"SAFFL":"Y","ITTFL":"Y","EFFFL":"Y","COMPFL":"N","SITEID":"701","AGE":56,"AGEGR1":"<65","SEX":"M","RACE":"WHITE","ARMCD":"Xan_Hi","TRTSDT":"2013-02-12","TRTEDT":"2013-03-18"},{"STUDYID":"CDISCPILOT01","USUBJID":"01-701-1180","DOMAIN":"ADQS","PARAMCD":"CIBIC","PARAM":"CIBIC+ Global Score","PARAMN":1,"AVISIT":"Week 26","AVISITN":26,"ADT":null,"ADY":null,"AVAL":5,"DTYPE":null,"ANL01FL":"Y","TRT01A":"Xanomeline High Dose","TRT01AN":3,"SAFFL":"Y","ITTFL":"Y","EFFFL":"Y","COMPFL":"N","SITEID":"701","AGE":56,"AGEGR1":"<65","SEX":"M","RACE":"WHITE","ARMCD":"Xan_Hi","TRTSDT":"2013-02-12","TRTEDT":"2013-03-18"},{"STUDYID":"CDISCPILOT01","USUBJID":"01-701-1181","DOMAIN":"ADQS","PARAMCD":"CIBIC","PARAM":"CIBIC+ Global Score","PARAMN":1,"AVISIT":"Week 2","AVISITN":2,"ADT":"2013-12-12","ADY":8,"AVAL":4,"DTYPE":null,"ANL01FL":"Y","TRT01A":"Xanomeline High Dose","TRT01AN":3,"SAFFL":"Y","ITTFL":"Y","EFFFL":"Y","COMPFL":"N","SITEID":"701","AGE":79,"AGEGR1":"65-80","SEX":"F","RACE":"WHITE","ARMCD":"Xan_Hi","TRTSDT":"2013-12-05","TRTEDT":"2013-12-09"},{"STUDYID":"CDISCPILOT01","USUBJID":"01-701-1181","DOMAIN":"ADQS","PARAMCD":"CIBIC","PARAM":"CIBIC+ Global Score","PARAMN":1,"AVISIT":"Week 4","AVISITN":4,"ADT":null,"ADY":null,"AVAL":4,"DTYPE":null,"ANL01FL":"Y","TRT01A":"Xanomeline High Dose","TRT01AN":3,"SAFFL":"Y","ITTFL":"Y","EFFFL":"Y","COMPFL":"N","SITEID":"701","AGE":79,"AGEGR1":"65-80","SEX":"F","RACE":"WHITE","ARMCD":"Xan_Hi","TRTSDT":"2013-12-05","TRTEDT":"2013-12-09"},{"STUDYID":"CDISCPILOT01","USUBJID":"01-701-1181","DOMAIN":"ADQS","PARAMCD":"CIBIC","PARAM":"CIBIC+ Global Score","PARAMN":1,"AVISIT":"Week 6","AVISITN":6,"ADT":null,"ADY":null,"AVAL":4,"DTYPE":null,"ANL01FL":"Y","TRT01A":"Xanomeline High Dose","TRT01AN":3,"SAFFL":"Y","ITTFL":"Y","EFFFL":"Y","COMPFL":"N","SITEID":"701","AGE":79,"AGEGR1":"65-80","SEX":"F","RACE":"WHITE","ARMCD":"Xan_Hi","TRTSDT":"2013-12-05","TRTEDT":"2013-12-09"},{"STUDYID":"CDISCPILOT01","USUBJID":"01-701-1181","DOMAIN":"ADQS","PARAMCD":"CIBIC","PARAM":"CIBIC+ Global Score","PARAMN":1,"AVISIT":"Week 8","AVISITN":8,"ADT":null,"ADY":null,"AVAL":4,"DTYPE":"LOCF","ANL01FL":"Y","TRT01A":"Xanomeline High Dose","TRT01AN":3,"SAFFL":"Y","ITTFL":"Y","EFFFL":"Y","COMPFL":"N","SITEID":"701","AGE":79,"AGEGR1":"65-80","SEX":"F","RACE":"WHITE","ARMCD":"Xan_Hi","TRTSDT":"2013-12-05","TRTEDT":"2013-12-09"},{"STUDYID":"CDISCPILOT01","USUBJID":"01-701-1181","DOMAIN":"ADQS","PARAMCD":"CIBIC","PARAM":"CIBIC+ Global Score","PARAMN":1,"AVISIT":"Week 12","AVISITN":12,"ADT":null,"ADY":null,"AVAL":4,"DTYPE":null,"ANL01FL":"Y","TRT01A":"Xanomeline High Dose","TRT01AN":3,"SAFFL":"Y","ITTFL":"Y","EFFFL":"Y","COMPFL":"N","SITEID":"701","AGE":79,"AGEGR1":"65-80","SEX":"F","RACE":"WHITE","ARMCD":"Xan_Hi","TRTSDT":"2013-12-05","TRTEDT":"2013-12-09"},{"STUDYID":"CDISCPILOT01","USUBJID":"01-701-1181","DOMAIN":"ADQS","PARAMCD":"CIBIC","PARAM":"CIBIC+ Global Score","PARAMN":1,"AVISIT":"Week 16","AVISITN":16,"ADT":null,"ADY":null,"AVAL":4,"DTYPE":"LOCF","ANL01FL":"Y","TRT01A":"Xanomeline High Dose","TRT01AN":3,"SAFFL":"Y","ITTFL":"Y","EFFFL":"Y","COMPFL":"N","SITEID":"701","AGE":79,"AGEGR1":"65-80","SEX":"F","RACE":"WHITE","ARMCD":"Xan_Hi","TRTSDT":"2013-12-05","TRTEDT":"2013-12-09"},{"STUDYID":"CDISCPILOT01","USUBJID":"01-701-1181","DOMAIN":"ADQS","PARAMCD":"CIBIC","PARAM":"CIBIC+ Global Score","PARAMN":1,"AVISIT":"Week 20","AVISITN":20,"ADT":null,"ADY":null,"AVAL":4,"DTYPE":null,"ANL01FL":"Y","TRT01A":"Xanomeline High Dose","TRT01AN":3,"SAFFL":"Y","ITTFL":"Y","EFFFL":"Y","COMPFL":"N","SITEID":"701","AGE":79,"AGEGR1":"65-80","SEX":"F","RACE":"WHITE","ARMCD":"Xan_Hi","TRTSDT":"2013-12-05","TRTEDT":"2013-12-09"},{"STUDYID":"CDISCPILOT01","USUBJID":"01-701-1181","DOMAIN":"ADQS","PARAMCD":"CIBIC","PARAM":"CIBIC+ Global Score","PARAMN":1,"AVISIT":"Week 24","AVISITN":24,"ADT":"2014-05-23","ADY":170,"AVAL":5,"DTYPE":null,"ANL01FL":"Y","TRT01A":"Xanomeline High Dose","TRT01AN":3,"SAFFL":"Y","ITTFL":"Y","EFFFL":"Y","COMPFL":"N","SITEID":"701","AGE":79,"AGEGR1":"65-80","SEX":"F","RACE":"WHITE","ARMCD":"Xan_Hi","TRTSDT":"2013-12-05","TRTEDT":"2013-12-09"},{"STUDYID":"CDISCPILOT01","USUBJID":"01-701-1181","DOMAIN":"ADQS","PARAMCD":"CIBIC","PARAM":"CIBIC+ Global Score","PARAMN":1,"AVISIT":"Week 26","AVISITN":26,"ADT":null,"ADY":null,"AVAL":5,"DTYPE":null,"ANL01FL":"Y","TRT01A":"Xanomeline High Dose","TRT01AN":3,"SAFFL":"Y","ITTFL":"Y","EFFFL":"Y","COMPFL":"N","SITEID":"701","AGE":79,"AGEGR1":"65-80","SEX":"F","RACE":"WHITE","ARMCD":"Xan_Hi","TRTSDT":"2013-12-05","TRTEDT":"2013-12-09"},{"STUDYID":"CDISCPILOT01","USUBJID":"01-701-1188","DOMAIN":"ADQS","PARAMCD":"CIBIC","PARAM":"CIBIC+ Global Score","PARAMN":1,"AVISIT":"Week 2","AVISITN":2,"ADT":null,"ADY":null,"AVAL":null,"DTYPE":null,"ANL01FL":"Y","TRT01A":"Xanomeline Low Dose","TRT01AN":2,"SAFFL":"Y","ITTFL":"Y","EFFFL":"Y","COMPFL":"N","SITEID":"701","AGE":71,"AGEGR1":"65-80","SEX":"M","RACE":"WHITE","ARMCD":"Xan_Lo","TRTSDT":"2013-02-15","TRTEDT":"2013-03-24"},{"STUDYID":"CDISCPILOT01","USUBJID":"01-701-1188","DOMAIN":"ADQS","PARAMCD":"CIBIC","PARAM":"CIBIC+ Global Score","PARAMN":1,"AVISIT":"Week 4","AVISITN":4,"ADT":null,"ADY":null,"AVAL":null,"DTYPE":null,"ANL01FL":"Y","TRT01A":"Xanomeline Low Dose","TRT01AN":2,"SAFFL":"Y","ITTFL":"Y","EFFFL":"Y","COMPFL":"N","SITEID":"701","AGE":71,"AGEGR1":"65-80","SEX":"M","RACE":"WHITE","ARMCD":"Xan_Lo","TRTSDT":"2013-02-15","TRTEDT":"2013-03-24"},{"STUDYID":"CDISCPILOT01","USUBJID":"01-701-1188","DOMAIN":"ADQS","PARAMCD":"CIBIC","PARAM":"CIBIC+ Global Score","PARAMN":1,"AVISIT":"Week 6","AVISITN":6,"ADT":"2013-03-25","ADY":39,"AVAL":4,"DTYPE":null,"ANL01FL":"Y","TRT01A":"Xanomeline Low Dose","TRT01AN":2,"SAFFL":"Y","ITTFL":"Y","EFFFL":"Y","COMPFL":"N","SITEID":"701","AGE":71,"AGEGR1":"65-80","SEX":"M","RACE":"WHITE","ARMCD":"Xan_Lo","TRTSDT":"2013-02-15","TRTEDT":"2013-03-24"},{"STUDYID":"CDISCPILOT01","USUBJID":"01-701-1188","DOMAIN":"ADQS","PARAMCD":"CIBIC","PARAM":"CIBIC+ Global Score","PARAMN":1,"AVISIT":"Week 8","AVISITN":8,"ADT":null,"ADY":null,"AVAL":4,"DTYPE":"LOCF","ANL01FL":"Y","TRT01A":"Xanomeline Low Dose","TRT01AN":2,"SAFFL":"Y","ITTFL":"Y","EFFFL":"Y","COMPFL":"N","SITEID":"701","AGE":71,"AGEGR1":"65-80","SEX":"M","RACE":"WHITE","ARMCD":"Xan_Lo","TRTSDT":"2013-02-15","TRTEDT":"2013-03-24"},{"STUDYID":"CDISCPILOT01","USUBJID":"01-701-1188","DOMAIN":"ADQS","PARAMCD":"CIBIC","PARAM":"CIBIC+ Global Score","PARAMN":1,"AVISIT":"Week 12","AVISITN":12,"ADT":null,"ADY":null,"AVAL":4,"DTYPE":null,"ANL01FL":"Y","TRT01A":"Xanomeline Low Dose","TRT01AN":2,"SAFFL":"Y","ITTFL":"Y","EFFFL":"Y","COMPFL":"N","SITEID":"701","AGE":71,"AGEGR1":"65-80","SEX":"M","RACE":"WHITE","ARMCD":"Xan_Lo","TRTSDT":"2013-02-15","TRTEDT":"2013-03-24"},{"STUDYID":"CDISCPILOT01","USUBJID":"01-701-1188","DOMAIN":"ADQS","PARAMCD":"CIBIC","PARAM":"CIBIC+ Global Score","PARAMN":1,"AVISIT":"Week 16","AVISITN":16,"ADT":null,"ADY":null,"AVAL":4,"DTYPE":"LOCF","ANL01FL":"Y","TRT01A":"Xanomeline Low Dose","TRT01AN":2,"SAFFL":"Y","ITTFL":"Y","EFFFL":"Y","COMPFL":"N","SITEID":"701","AGE":71,"AGEGR1":"65-80","SEX":"M","RACE":"WHITE","ARMCD":"Xan_Lo","TRTSDT":"2013-02-15","TRTEDT":"2013-03-24"},{"STUDYID":"CDISCPILOT01","USUBJID":"01-701-1188","DOMAIN":"ADQS","PARAMCD":"CIBIC","PARAM":"CIBIC+ Global Score","PARAMN":1,"AVISIT":"Week 20","AVISITN":20,"ADT":null,"ADY":null,"AVAL":4,"DTYPE":null,"ANL01FL":"Y","TRT01A":"Xanomeline Low Dose","TRT01AN":2,"SAFFL":"Y","ITTFL":"Y","EFFFL":"Y","COMPFL":"N","SITEID":"701","AGE":71,"AGEGR1":"65-80","SEX":"M","RACE":"WHITE","ARMCD":"Xan_Lo","TRTSDT":"2013-02-15","TRTEDT":"2013-03-24"},{"STUDYID":"CDISCPILOT01","USUBJID":"01-701-1188","DOMAIN":"ADQS","PARAMCD":"CIBIC","PARAM":"CIBIC+ Global Score","PARAMN":1,"AVISIT":"Week 24","AVISITN":24,"ADT":"2013-08-04","ADY":171,"AVAL":4,"DTYPE":null,"ANL01FL":"Y","TRT01A":"Xanomeline Low Dose","TRT01AN":2,"SAFFL":"Y","ITTFL":"Y","EFFFL":"Y","COMPFL":"N","SITEID":"701","AGE":71,"AGEGR1":"65-80","SEX":"M","RACE":"WHITE","ARMCD":"Xan_Lo","TRTSDT":"2013-02-15","TRTEDT":"2013-03-24"},{"STUDYID":"CDISCPILOT01","USUBJID":"01-701-1188","DOMAIN":"ADQS","PARAMCD":"CIBIC","PARAM":"CIBIC+ Global Score","PARAMN":1,"AVISIT":"Week 26","AVISITN":26,"ADT":null,"ADY":null,"AVAL":4,"DTYPE":null,"ANL01FL":"Y","TRT01A":"Xanomeline Low Dose","TRT01AN":2,"SAFFL":"Y","ITTFL":"Y","EFFFL":"Y","COMPFL":"N","SITEID":"701","AGE":71,"AGEGR1":"65-80","SEX":"M","RACE":"WHITE","ARMCD":"Xan_Lo","TRTSDT":"2013-02-15","TRTEDT":"2013-03-24"},{"STUDYID":"CDISCPILOT01","USUBJID":"01-701-1192","DOMAIN":"ADQS","PARAMCD":"CIBIC","PARAM":"CIBIC+ Global Score","PARAMN":1,"AVISIT":"Week 2","AVISITN":2,"ADT":null,"ADY":null,"AVAL":null,"DTYPE":null,"ANL01FL":"Y","TRT01A":"Xanomeline Low Dose","TRT01AN":2,"SAFFL":"Y","ITTFL":"Y","EFFFL":"Y","COMPFL":"Y","SITEID":"701","AGE":80,"AGEGR1":"65-80","SEX":"F","RACE":"WHITE","ARMCD":"Xan_Lo","TRTSDT":"2012-07-22","TRTEDT":"2013-01-20"},{"STUDYID":"CDISCPILOT01","USUBJID":"01-701-1192","DOMAIN":"ADQS","PARAMCD":"CIBIC","PARAM":"CIBIC+ Global Score","PARAMN":1,"AVISIT":"Week 4","AVISITN":4,"ADT":null,"ADY":null,"AVAL":null,"DTYPE":null,"ANL01FL":"Y","TRT01A":"Xanomeline Low Dose","TRT01AN":2,"SAFFL":"Y","ITTFL":"Y","EFFFL":"Y","COMPFL":"Y","SITEID":"701","AGE":80,"AGEGR1":"65-80","SEX":"F","RACE":"WHITE","ARMCD":"Xan_Lo","TRTSDT":"2012-07-22","TRTEDT":"2013-01-20"},{"STUDYID":"CDISCPILOT01","USUBJID":"01-701-1192","DOMAIN":"ADQS","PARAMCD":"CIBIC","PARAM":"CIBIC+ Global Score","PARAMN":1,"AVISIT":"Week 6","AVISITN":6,"ADT":null,"ADY":null,"AVAL":null,"DTYPE":null,"ANL01FL":"Y","TRT01A":"Xanomeline Low Dose","TRT01AN":2,"SAFFL":"Y","ITTFL":"Y","EFFFL":"Y","COMPFL":"Y","SITEID":"701","AGE":80,"AGEGR1":"65-80","SEX":"F","RACE":"WHITE","ARMCD":"Xan_Lo","TRTSDT":"2012-07-22","TRTEDT":"2013-01-20"},{"STUDYID":"CDISCPILOT01","USUBJID":"01-701-1192","DOMAIN":"ADQS","PARAMCD":"CIBIC","PARAM":"CIBIC+ Global Score","PARAMN":1,"AVISIT":"Week 8","AVISITN":8,"ADT":"2012-09-23","ADY":64,"AVAL":5,"DTYPE":null,"ANL01FL":"Y","TRT01A":"Xanomeline Low Dose","TRT01AN":2,"SAFFL":"Y","ITTFL":"Y","EFFFL":"Y","COMPFL":"Y","SITEID":"701","AGE":80,"AGEGR1":"65-80","SEX":"F","RACE":"WHITE","ARMCD":"Xan_Lo","TRTSDT":"2012-07-22","TRTEDT":"2013-01-20"},{"STUDYID":"CDISCPILOT01","USUBJID":"01-701-1192","DOMAIN":"ADQS","PARAMCD":"CIBIC","PARAM":"CIBIC+ Global Score","PARAMN":1,"AVISIT":"Week 12","AVISITN":12,"ADT":null,"ADY":null,"AVAL":5,"DTYPE":null,"ANL01FL":"Y","TRT01A":"Xanomeline Low Dose","TRT01AN":2,"SAFFL":"Y","ITTFL":"Y","EFFFL":"Y","COMPFL":"Y","SITEID":"701","AGE":80,"AGEGR1":"65-80","SEX":"F","RACE":"WHITE","ARMCD":"Xan_Lo","TRTSDT":"2012-07-22","TRTEDT":"2013-01-20"},{"STUDYID":"CDISCPILOT01","USUBJID":"01-701-1192","DOMAIN":"ADQS","PARAMCD":"CIBIC","PARAM":"CIBIC+ Global Score","PARAMN":1,"AVISIT":"Week 16","AVISITN":16,"ADT":"2012-11-15","ADY":117,"AVAL":4,"DTYPE":null,"ANL01FL":"Y","TRT01A":"Xanomeline Low Dose","TRT01AN":2,"SAFFL":"Y","ITTFL":"Y","EFFFL":"Y","COMPFL":"Y","SITEID":"701","AGE":80,"AGEGR1":"65-80","SEX":"F","RACE":"WHITE","ARMCD":"Xan_Lo","TRTSDT":"2012-07-22","TRTEDT":"2013-01-20"},{"STUDYID":"CDISCPILOT01","USUBJID":"01-701-1192","DOMAIN":"ADQS","PARAMCD":"CIBIC","PARAM":"CIBIC+ Global Score","PARAMN":1,"AVISIT":"Week 20","AVISITN":20,"ADT":null,"ADY":null,"AVAL":4,"DTYPE":null,"ANL01FL":"Y","TRT01A":"Xanomeline Low Dose","TRT01AN":2,"SAFFL":"Y","ITTFL":"Y","EFFFL":"Y","COMPFL":"Y","SITEID":"701","AGE":80,"AGEGR1":"65-80","SEX":"F","RACE":"WHITE","ARMCD":"Xan_Lo","TRTSDT":"2012-07-22","TRTEDT":"2013-01-20"},{"STUDYID":"CDISCPILOT01","USUBJID":"01-701-1192","DOMAIN":"ADQS","PARAMCD":"CIBIC","PARAM":"CIBIC+ Global Score","PARAMN":1,"AVISIT":"Week 24","AVISITN":24,"ADT":"2013-01-11","ADY":174,"AVAL":4,"DTYPE":null,"ANL01FL":"Y","TRT01A":"Xanomeline Low Dose","TRT01AN":2,"SAFFL":"Y","ITTFL":"Y","EFFFL":"Y","COMPFL":"Y","SITEID":"701","AGE":80,"AGEGR1":"65-80","SEX":"F","RACE":"WHITE","ARMCD":"Xan_Lo","TRTSDT":"2012-07-22","TRTEDT":"2013-01-20"},{"STUDYID":"CDISCPILOT01","USUBJID":"01-701-1192","DOMAIN":"ADQS","PARAMCD":"CIBIC","PARAM":"CIBIC+ Global Score","PARAMN":1,"AVISIT":"Week 26","AVISITN":26,"ADT":null,"ADY":null,"AVAL":4,"DTYPE":null,"ANL01FL":"Y","TRT01A":"Xanomeline Low Dose","TRT01AN":2,"SAFFL":"Y","ITTFL":"Y","EFFFL":"Y","COMPFL":"Y","SITEID":"701","AGE":80,"AGEGR1":"65-80","SEX":"F","RACE":"WHITE","ARMCD":"Xan_Lo","TRTSDT":"2012-07-22","TRTEDT":"2013-01-20"},{"STUDYID":"CDISCPILOT01","USUBJID":"01-701-1203","DOMAIN":"ADQS","PARAMCD":"CIBIC","PARAM":"CIBIC+ Global Score","PARAMN":1,"AVISIT":"Week 2","AVISITN":2,"ADT":null,"ADY":null,"AVAL":null,"DTYPE":null,"ANL01FL":"Y","TRT01A":"Placebo","TRT01AN":1,"SAFFL":"Y","ITTFL":"Y","EFFFL":"Y","COMPFL":"Y","SITEID":"701","AGE":81,"AGEGR1":">80","SEX":"F","RACE":"BLACK OR AFRICAN AMERICAN","ARMCD":"Pbo","TRTSDT":"2013-02-02","TRTEDT":"2013-08-03"},{"STUDYID":"CDISCPILOT01","USUBJID":"01-701-1203","DOMAIN":"ADQS","PARAMCD":"CIBIC","PARAM":"CIBIC+ Global Score","PARAMN":1,"AVISIT":"Week 4","AVISITN":4,"ADT":null,"ADY":null,"AVAL":null,"DTYPE":null,"ANL01FL":"Y","TRT01A":"Placebo","TRT01AN":1,"SAFFL":"Y","ITTFL":"Y","EFFFL":"Y","COMPFL":"Y","SITEID":"701","AGE":81,"AGEGR1":">80","SEX":"F","RACE":"BLACK OR AFRICAN AMERICAN","ARMCD":"Pbo","TRTSDT":"2013-02-02","TRTEDT":"2013-08-03"},{"STUDYID":"CDISCPILOT01","USUBJID":"01-701-1203","DOMAIN":"ADQS","PARAMCD":"CIBIC","PARAM":"CIBIC+ Global Score","PARAMN":1,"AVISIT":"Week 6","AVISITN":6,"ADT":null,"ADY":null,"AVAL":null,"DTYPE":null,"ANL01FL":"Y","TRT01A":"Placebo","TRT01AN":1,"SAFFL":"Y","ITTFL":"Y","EFFFL":"Y","COMPFL":"Y","SITEID":"701","AGE":81,"AGEGR1":">80","SEX":"F","RACE":"BLACK OR AFRICAN AMERICAN","ARMCD":"Pbo","TRTSDT":"2013-02-02","TRTEDT":"2013-08-03"},{"STUDYID":"CDISCPILOT01","USUBJID":"01-701-1203","DOMAIN":"ADQS","PARAMCD":"CIBIC","PARAM":"CIBIC+ Global Score","PARAMN":1,"AVISIT":"Week 8","AVISITN":8,"ADT":"2013-03-30","ADY":57,"AVAL":4,"DTYPE":null,"ANL01FL":"Y","TRT01A":"Placebo","TRT01AN":1,"SAFFL":"Y","ITTFL":"Y","EFFFL":"Y","COMPFL":"Y","SITEID":"701","AGE":81,"AGEGR1":">80","SEX":"F","RACE":"BLACK OR AFRICAN AMERICAN","ARMCD":"Pbo","TRTSDT":"2013-02-02","TRTEDT":"2013-08-03"},{"STUDYID":"CDISCPILOT01","USUBJID":"01-701-1203","DOMAIN":"ADQS","PARAMCD":"CIBIC","PARAM":"CIBIC+ Global Score","PARAMN":1,"AVISIT":"Week 12","AVISITN":12,"ADT":null,"ADY":null,"AVAL":4,"DTYPE":null,"ANL01FL":"Y","TRT01A":"Placebo","TRT01AN":1,"SAFFL":"Y","ITTFL":"Y","EFFFL":"Y","COMPFL":"Y","SITEID":"701","AGE":81,"AGEGR1":">80","SEX":"F","RACE":"BLACK OR AFRICAN AMERICAN","ARMCD":"Pbo","TRTSDT":"2013-02-02","TRTEDT":"2013-08-03"},{"STUDYID":"CDISCPILOT01","USUBJID":"01-701-1203","DOMAIN":"ADQS","PARAMCD":"CIBIC","PARAM":"CIBIC+ Global Score","PARAMN":1,"AVISIT":"Week 16","AVISITN":16,"ADT":"2013-05-25","ADY":113,"AVAL":4,"DTYPE":null,"ANL01FL":"Y","TRT01A":"Placebo","TRT01AN":1,"SAFFL":"Y","ITTFL":"Y","EFFFL":"Y","COMPFL":"Y","SITEID":"701","AGE":81,"AGEGR1":">80","SEX":"F","RACE":"BLACK OR AFRICAN AMERICAN","ARMCD":"Pbo","TRTSDT":"2013-02-02","TRTEDT":"2013-08-03"},{"STUDYID":"CDISCPILOT01","USUBJID":"01-701-1203","DOMAIN":"ADQS","PARAMCD":"CIBIC","PARAM":"CIBIC+ Global Score","PARAMN":1,"AVISIT":"Week 20","AVISITN":20,"ADT":null,"ADY":null,"AVAL":4,"DTYPE":null,"ANL01FL":"Y","TRT01A":"Placebo","TRT01AN":1,"SAFFL":"Y","ITTFL":"Y","EFFFL":"Y","COMPFL":"Y","SITEID":"701","AGE":81,"AGEGR1":">80","SEX":"F","RACE":"BLACK OR AFRICAN AMERICAN","ARMCD":"Pbo","TRTSDT":"2013-02-02","TRTEDT":"2013-08-03"},{"STUDYID":"CDISCPILOT01","USUBJID":"01-701-1203","DOMAIN":"ADQS","PARAMCD":"CIBIC","PARAM":"CIBIC+ Global Score","PARAMN":1,"AVISIT":"Week 24","AVISITN":24,"ADT":"2013-07-22","ADY":171,"AVAL":4,"DTYPE":null,"ANL01FL":"Y","TRT01A":"Placebo","TRT01AN":1,"SAFFL":"Y","ITTFL":"Y","EFFFL":"Y","COMPFL":"Y","SITEID":"701","AGE":81,"AGEGR1":">80","SEX":"F","RACE":"BLACK OR AFRICAN AMERICAN","ARMCD":"Pbo","TRTSDT":"2013-02-02","TRTEDT":"2013-08-03"},{"STUDYID":"CDISCPILOT01","USUBJID":"01-701-1203","DOMAIN":"ADQS","PARAMCD":"CIBIC","PARAM":"CIBIC+ Global Score","PARAMN":1,"AVISIT":"Week 26","AVISITN":26,"ADT":null,"ADY":null,"AVAL":4,"DTYPE":null,"ANL01FL":"Y","TRT01A":"Placebo","TRT01AN":1,"SAFFL":"Y","ITTFL":"Y","EFFFL":"Y","COMPFL":"Y","SITEID":"701","AGE":81,"AGEGR1":">80","SEX":"F","RACE":"BLACK OR AFRICAN AMERICAN","ARMCD":"Pbo","TRTSDT":"2013-02-02","TRTEDT":"2013-08-03"},{"STUDYID":"CDISCPILOT01","USUBJID":"01-701-1211","DOMAIN":"ADQS","PARAMCD":"CIBIC","PARAM":"CIBIC+ Global Score","PARAMN":1,"AVISIT":"Week 2","AVISITN":2,"ADT":null,"ADY":null,"AVAL":null,"DTYPE":null,"ANL01FL":"Y","TRT01A":"Xanomeline Low Dose","TRT01AN":2,"SAFFL":"Y","ITTFL":"Y","EFFFL":"Y","COMPFL":"N","SITEID":"701","AGE":76,"AGEGR1":"65-80","SEX":"F","RACE":"WHITE","ARMCD":"Xan_Lo","TRTSDT":"2012-11-15","TRTEDT":"2013-01-12"},{"STUDYID":"CDISCPILOT01","USUBJID":"01-701-1211","DOMAIN":"ADQS","PARAMCD":"CIBIC","PARAM":"CIBIC+ Global Score","PARAMN":1,"AVISIT":"Week 4","AVISITN":4,"ADT":null,"ADY":null,"AVAL":null,"DTYPE":null,"ANL01FL":"Y","TRT01A":"Xanomeline Low Dose","TRT01AN":2,"SAFFL":"Y","ITTFL":"Y","EFFFL":"Y","COMPFL":"N","SITEID":"701","AGE":76,"AGEGR1":"65-80","SEX":"F","RACE":"WHITE","ARMCD":"Xan_Lo","TRTSDT":"2012-11-15","TRTEDT":"2013-01-12"},{"STUDYID":"CDISCPILOT01","USUBJID":"01-701-1211","DOMAIN":"ADQS","PARAMCD":"CIBIC","PARAM":"CIBIC+ Global Score","PARAMN":1,"AVISIT":"Week 6","AVISITN":6,"ADT":null,"ADY":null,"AVAL":null,"DTYPE":null,"ANL01FL":"Y","TRT01A":"Xanomeline Low Dose","TRT01AN":2,"SAFFL":"Y","ITTFL":"Y","EFFFL":"Y","COMPFL":"N","SITEID":"701","AGE":76,"AGEGR1":"65-80","SEX":"F","RACE":"WHITE","ARMCD":"Xan_Lo","TRTSDT":"2012-11-15","TRTEDT":"2013-01-12"},{"STUDYID":"CDISCPILOT01","USUBJID":"01-701-1211","DOMAIN":"ADQS","PARAMCD":"CIBIC","PARAM":"CIBIC+ Global Score","PARAMN":1,"AVISIT":"Week 8","AVISITN":8,"ADT":"2013-01-08","ADY":55,"AVAL":5,"DTYPE":null,"ANL01FL":"Y","TRT01A":"Xanomeline Low Dose","TRT01AN":2,"SAFFL":"Y","ITTFL":"Y","EFFFL":"Y","COMPFL":"N","SITEID":"701","AGE":76,"AGEGR1":"65-80","SEX":"F","RACE":"WHITE","ARMCD":"Xan_Lo","TRTSDT":"2012-11-15","TRTEDT":"2013-01-12"},{"STUDYID":"CDISCPILOT01","USUBJID":"01-701-1211","DOMAIN":"ADQS","PARAMCD":"CIBIC","PARAM":"CIBIC+ Global Score","PARAMN":1,"AVISIT":"Week 12","AVISITN":12,"ADT":null,"ADY":null,"AVAL":5,"DTYPE":null,"ANL01FL":"Y","TRT01A":"Xanomeline Low Dose","TRT01AN":2,"SAFFL":"Y","ITTFL":"Y","EFFFL":"Y","COMPFL":"N","SITEID":"701","AGE":76,"AGEGR1":"65-80","SEX":"F","RACE":"WHITE","ARMCD":"Xan_Lo","TRTSDT":"2012-11-15","TRTEDT":"2013-01-12"},{"STUDYID":"CDISCPILOT01","USUBJID":"01-701-1211","DOMAIN":"ADQS","PARAMCD":"CIBIC","PARAM":"CIBIC+ Global Score","PARAMN":1,"AVISIT":"Week 16","AVISITN":16,"ADT":null,"ADY":null,"AVAL":5,"DTYPE":"LOCF","ANL01FL":"Y","TRT01A":"Xanomeline Low Dose","TRT01AN":2,"SAFFL":"Y","ITTFL":"Y","EFFFL":"Y","COMPFL":"N","SITEID":"701","AGE":76,"AGEGR1":"65-80","SEX":"F","RACE":"WHITE","ARMCD":"Xan_Lo","TRTSDT":"2012-11-15","TRTEDT":"2013-01-12"},{"STUDYID":"CDISCPILOT01","USUBJID":"01-701-1211","DOMAIN":"ADQS","PARAMCD":"CIBIC","PARAM":"CIBIC+ Global Score","PARAMN":1,"AVISIT":"Week 20","AVISITN":20,"ADT":null,"ADY":null,"AVAL":5,"DTYPE":null,"ANL01FL":"Y","TRT01A":"Xanomeline Low Dose","TRT01AN":2,"SAFFL":"Y","ITTFL":"Y","EFFFL":"Y","COMPFL":"N","SITEID":"701","AGE":76,"AGEGR1":"65-80","SEX":"F","RACE":"WHITE","ARMCD":"Xan_Lo","TRTSDT":"2012-11-15","TRTEDT":"2013-01-12"},{"STUDYID":"CDISCPILOT01","USUBJID":"01-701-1211","DOMAIN":"ADQS","PARAMCD":"CIBIC","PARAM":"CIBIC+ Global Score","PARAMN":1,"AVISIT":"Week 24","AVISITN":24,"ADT":null,"ADY":null,"AVAL":5,"DTYPE":"LOCF","ANL01FL":"Y","TRT01A":"Xanomeline Low Dose","TRT01AN":2,"SAFFL":"Y","ITTFL":"Y","EFFFL":"Y","COMPFL":"N","SITEID":"701","AGE":76,"AGEGR1":"65-80","SEX":"F","RACE":"WHITE","ARMCD":"Xan_Lo","TRTSDT":"2012-11-15","TRTEDT":"2013-01-12"},{"STUDYID":"CDISCPILOT01","USUBJID":"01-701-1211","DOMAIN":"ADQS","PARAMCD":"CIBIC","PARAM":"CIBIC+ Global Score","PARAMN":1,"AVISIT":"Week 26","AVISITN":26,"ADT":null,"ADY":null,"AVAL":5,"DTYPE":null,"ANL01FL":"Y","TRT01A":"Xanomeline Low Dose","TRT01AN":2,"SAFFL":"Y","ITTFL":"Y","EFFFL":"Y","COMPFL":"N","SITEID":"701","AGE":76,"AGEGR1":"65-80","SEX":"F","RACE":"WHITE","ARMCD":"Xan_Lo","TRTSDT":"2012-11-15","TRTEDT":"2013-01-12"},{"STUDYID":"CDISCPILOT01","USUBJID":"01-701-1234","DOMAIN":"ADQS","PARAMCD":"CIBIC","PARAM":"CIBIC+ Global Score","PARAMN":1,"AVISIT":"Week 2","AVISITN":2,"ADT":null,"ADY":null,"AVAL":null,"DTYPE":null,"ANL01FL":"Y","TRT01A":"Placebo","TRT01AN":1,"SAFFL":"Y","ITTFL":"Y","EFFFL":"Y","COMPFL":"Y","SITEID":"701","AGE":69,"AGEGR1":"65-80","SEX":"M","RACE":"WHITE","ARMCD":"Pbo","TRTSDT":"2013-03-30","TRTEDT":"2013-09-22"},{"STUDYID":"CDISCPILOT01","USUBJID":"01-701-1234","DOMAIN":"ADQS","PARAMCD":"CIBIC","PARAM":"CIBIC+ Global Score","PARAMN":1,"AVISIT":"Week 4","AVISITN":4,"ADT":null,"ADY":null,"AVAL":null,"DTYPE":null,"ANL01FL":"Y","TRT01A":"Placebo","TRT01AN":1,"SAFFL":"Y","ITTFL":"Y","EFFFL":"Y","COMPFL":"Y","SITEID":"701","AGE":69,"AGEGR1":"65-80","SEX":"M","RACE":"WHITE","ARMCD":"Pbo","TRTSDT":"2013-03-30","TRTEDT":"2013-09-22"},{"STUDYID":"CDISCPILOT01","USUBJID":"01-701-1234","DOMAIN":"ADQS","PARAMCD":"CIBIC","PARAM":"CIBIC+ Global Score","PARAMN":1,"AVISIT":"Week 6","AVISITN":6,"ADT":null,"ADY":null,"AVAL":null,"DTYPE":null,"ANL01FL":"Y","TRT01A":"Placebo","TRT01AN":1,"SAFFL":"Y","ITTFL":"Y","EFFFL":"Y","COMPFL":"Y","SITEID":"701","AGE":69,"AGEGR1":"65-80","SEX":"M","RACE":"WHITE","ARMCD":"Pbo","TRTSDT":"2013-03-30","TRTEDT":"2013-09-22"},{"STUDYID":"CDISCPILOT01","USUBJID":"01-701-1234","DOMAIN":"ADQS","PARAMCD":"CIBIC","PARAM":"CIBIC+ Global Score","PARAMN":1,"AVISIT":"Week 8","AVISITN":8,"ADT":"2013-05-26","ADY":58,"AVAL":3,"DTYPE":null,"ANL01FL":"Y","TRT01A":"Placebo","TRT01AN":1,"SAFFL":"Y","ITTFL":"Y","EFFFL":"Y","COMPFL":"Y","SITEID":"701","AGE":69,"AGEGR1":"65-80","SEX":"M","RACE":"WHITE","ARMCD":"Pbo","TRTSDT":"2013-03-30","TRTEDT":"2013-09-22"},{"STUDYID":"CDISCPILOT01","USUBJID":"01-701-1234","DOMAIN":"ADQS","PARAMCD":"CIBIC","PARAM":"CIBIC+ Global Score","PARAMN":1,"AVISIT":"Week 12","AVISITN":12,"ADT":null,"ADY":null,"AVAL":3,"DTYPE":null,"ANL01FL":"Y","TRT01A":"Placebo","TRT01AN":1,"SAFFL":"Y","ITTFL":"Y","EFFFL":"Y","COMPFL":"Y","SITEID":"701","AGE":69,"AGEGR1":"65-80","SEX":"M","RACE":"WHITE","ARMCD":"Pbo","TRTSDT":"2013-03-30","TRTEDT":"2013-09-22"},{"STUDYID":"CDISCPILOT01","USUBJID":"01-701-1234","DOMAIN":"ADQS","PARAMCD":"CIBIC","PARAM":"CIBIC+ Global Score","PARAMN":1,"AVISIT":"Week 16","AVISITN":16,"ADT":"2013-07-27","ADY":120,"AVAL":4,"DTYPE":null,"ANL01FL":"Y","TRT01A":"Placebo","TRT01AN":1,"SAFFL":"Y","ITTFL":"Y","EFFFL":"Y","COMPFL":"Y","SITEID":"701","AGE":69,"AGEGR1":"65-80","SEX":"M","RACE":"WHITE","ARMCD":"Pbo","TRTSDT":"2013-03-30","TRTEDT":"2013-09-22"},{"STUDYID":"CDISCPILOT01","USUBJID":"01-701-1234","DOMAIN":"ADQS","PARAMCD":"CIBIC","PARAM":"CIBIC+ Global Score","PARAMN":1,"AVISIT":"Week 20","AVISITN":20,"ADT":null,"ADY":null,"AVAL":4,"DTYPE":null,"ANL01FL":"Y","TRT01A":"Placebo","TRT01AN":1,"SAFFL":"Y","ITTFL":"Y","EFFFL":"Y","COMPFL":"Y","SITEID":"701","AGE":69,"AGEGR1":"65-80","SEX":"M","RACE":"WHITE","ARMCD":"Pbo","TRTSDT":"2013-03-30","TRTEDT":"2013-09-22"},{"STUDYID":"CDISCPILOT01","USUBJID":"01-701-1234","DOMAIN":"ADQS","PARAMCD":"CIBIC","PARAM":"CIBIC+ Global Score","PARAMN":1,"AVISIT":"Week 24","AVISITN":24,"ADT":"2013-09-10","ADY":165,"AVAL":4,"DTYPE":null,"ANL01FL":"Y","TRT01A":"Placebo","TRT01AN":1,"SAFFL":"Y","ITTFL":"Y","EFFFL":"Y","COMPFL":"Y","SITEID":"701","AGE":69,"AGEGR1":"65-80","SEX":"M","RACE":"WHITE","ARMCD":"Pbo","TRTSDT":"2013-03-30","TRTEDT":"2013-09-22"},{"STUDYID":"CDISCPILOT01","USUBJID":"01-701-1234","DOMAIN":"ADQS","PARAMCD":"CIBIC","PARAM":"CIBIC+ Global Score","PARAMN":1,"AVISIT":"Week 26","AVISITN":26,"ADT":null,"ADY":null,"AVAL":4,"DTYPE":null,"ANL01FL":"Y","TRT01A":"Placebo","TRT01AN":1,"SAFFL":"Y","ITTFL":"Y","EFFFL":"Y","COMPFL":"Y","SITEID":"701","AGE":69,"AGEGR1":"65-80","SEX":"M","RACE":"WHITE","ARMCD":"Pbo","TRTSDT":"2013-03-30","TRTEDT":"2013-09-22"},{"STUDYID":"CDISCPILOT01","USUBJID":"01-701-1239","DOMAIN":"ADQS","PARAMCD":"CIBIC","PARAM":"CIBIC+ Global Score","PARAMN":1,"AVISIT":"Week 2","AVISITN":2,"ADT":null,"ADY":null,"AVAL":null,"DTYPE":null,"ANL01FL":"Y","TRT01A":"Xanomeline High Dose","TRT01AN":3,"SAFFL":"Y","ITTFL":"Y","EFFFL":"Y","COMPFL":"Y","SITEID":"701","AGE":56,"AGEGR1":"<65","SEX":"M","RACE":"WHITE","ARMCD":"Xan_Hi","TRTSDT":"2014-01-11","TRTEDT":"2014-07-10"},{"STUDYID":"CDISCPILOT01","USUBJID":"01-701-1239","DOMAIN":"ADQS","PARAMCD":"CIBIC","PARAM":"CIBIC+ Global Score","PARAMN":1,"AVISIT":"Week 4","AVISITN":4,"ADT":null,"ADY":null,"AVAL":null,"DTYPE":null,"ANL01FL":"Y","TRT01A":"Xanomeline High Dose","TRT01AN":3,"SAFFL":"Y","ITTFL":"Y","EFFFL":"Y","COMPFL":"Y","SITEID":"701","AGE":56,"AGEGR1":"<65","SEX":"M","RACE":"WHITE","ARMCD":"Xan_Hi","TRTSDT":"2014-01-11","TRTEDT":"2014-07-10"},{"STUDYID":"CDISCPILOT01","USUBJID":"01-701-1239","DOMAIN":"ADQS","PARAMCD":"CIBIC","PARAM":"CIBIC+ Global Score","PARAMN":1,"AVISIT":"Week 6","AVISITN":6,"ADT":null,"ADY":null,"AVAL":null,"DTYPE":null,"ANL01FL":"Y","TRT01A":"Xanomeline High Dose","TRT01AN":3,"SAFFL":"Y","ITTFL":"Y","EFFFL":"Y","COMPFL":"Y","SITEID":"701","AGE":56,"AGEGR1":"<65","SEX":"M","RACE":"WHITE","ARMCD":"Xan_Hi","TRTSDT":"2014-01-11","TRTEDT":"2014-07-10"},{"STUDYID":"CDISCPILOT01","USUBJID":"01-701-1239","DOMAIN":"ADQS","PARAMCD":"CIBIC","PARAM":"CIBIC+ Global Score","PARAMN":1,"AVISIT":"Week 8","AVISITN":8,"ADT":"2014-03-06","ADY":55,"AVAL":3,"DTYPE":null,"ANL01FL":"Y","TRT01A":"Xanomeline High Dose","TRT01AN":3,"SAFFL":"Y","ITTFL":"Y","EFFFL":"Y","COMPFL":"Y","SITEID":"701","AGE":56,"AGEGR1":"<65","SEX":"M","RACE":"WHITE","ARMCD":"Xan_Hi","TRTSDT":"2014-01-11","TRTEDT":"2014-07-10"},{"STUDYID":"CDISCPILOT01","USUBJID":"01-701-1239","DOMAIN":"ADQS","PARAMCD":"CIBIC","PARAM":"CIBIC+ Global Score","PARAMN":1,"AVISIT":"Week 12","AVISITN":12,"ADT":null,"ADY":null,"AVAL":3,"DTYPE":null,"ANL01FL":"Y","TRT01A":"Xanomeline High Dose","TRT01AN":3,"SAFFL":"Y","ITTFL":"Y","EFFFL":"Y","COMPFL":"Y","SITEID":"701","AGE":56,"AGEGR1":"<65","SEX":"M","RACE":"WHITE","ARMCD":"Xan_Hi","TRTSDT":"2014-01-11","TRTEDT":"2014-07-10"},{"STUDYID":"CDISCPILOT01","USUBJID":"01-701-1239","DOMAIN":"ADQS","PARAMCD":"CIBIC","PARAM":"CIBIC+ Global Score","PARAMN":1,"AVISIT":"Week 16","AVISITN":16,"ADT":"2014-05-02","ADY":112,"AVAL":2,"DTYPE":null,"ANL01FL":"Y","TRT01A":"Xanomeline High Dose","TRT01AN":3,"SAFFL":"Y","ITTFL":"Y","EFFFL":"Y","COMPFL":"Y","SITEID":"701","AGE":56,"AGEGR1":"<65","SEX":"M","RACE":"WHITE","ARMCD":"Xan_Hi","TRTSDT":"2014-01-11","TRTEDT":"2014-07-10"},{"STUDYID":"CDISCPILOT01","USUBJID":"01-701-1239","DOMAIN":"ADQS","PARAMCD":"CIBIC","PARAM":"CIBIC+ Global Score","PARAMN":1,"AVISIT":"Week 20","AVISITN":20,"ADT":null,"ADY":null,"AVAL":2,"DTYPE":null,"ANL01FL":"Y","TRT01A":"Xanomeline High Dose","TRT01AN":3,"SAFFL":"Y","ITTFL":"Y","EFFFL":"Y","COMPFL":"Y","SITEID":"701","AGE":56,"AGEGR1":"<65","SEX":"M","RACE":"WHITE","ARMCD":"Xan_Hi","TRTSDT":"2014-01-11","TRTEDT":"2014-07-10"},{"STUDYID":"CDISCPILOT01","USUBJID":"01-701-1239","DOMAIN":"ADQS","PARAMCD":"CIBIC","PARAM":"CIBIC+ Global Score","PARAMN":1,"AVISIT":"Week 24","AVISITN":24,"ADT":"2014-06-27","ADY":168,"AVAL":3,"DTYPE":null,"ANL01FL":"Y","TRT01A":"Xanomeline High Dose","TRT01AN":3,"SAFFL":"Y","ITTFL":"Y","EFFFL":"Y","COMPFL":"Y","SITEID":"701","AGE":56,"AGEGR1":"<65","SEX":"M","RACE":"WHITE","ARMCD":"Xan_Hi","TRTSDT":"2014-01-11","TRTEDT":"2014-07-10"},{"STUDYID":"CDISCPILOT01","USUBJID":"01-701-1239","DOMAIN":"ADQS","PARAMCD":"CIBIC","PARAM":"CIBIC+ Global Score","PARAMN":1,"AVISIT":"Week 26","AVISITN":26,"ADT":null,"ADY":null,"AVAL":3,"DTYPE":null,"ANL01FL":"Y","TRT01A":"Xanomeline High Dose","TRT01AN":3,"SAFFL":"Y","ITTFL":"Y","EFFFL":"Y","COMPFL":"Y","SITEID":"701","AGE":56,"AGEGR1":"<65","SEX":"M","RACE":"WHITE","ARMCD":"Xan_Hi","TRTSDT":"2014-01-11","TRTEDT":"2014-07-10"},{"STUDYID":"CDISCPILOT01","USUBJID":"01-701-1275","DOMAIN":"ADQS","PARAMCD":"CIBIC","PARAM":"CIBIC+ Global Score","PARAMN":1,"AVISIT":"Week 2","AVISITN":2,"ADT":null,"ADY":null,"AVAL":null,"DTYPE":null,"ANL01FL":"Y","TRT01A":"Xanomeline High Dose","TRT01AN":3,"SAFFL":"Y","ITTFL":"Y","EFFFL":"Y","COMPFL":"N","SITEID":"701","AGE":61,"AGEGR1":"<65","SEX":"M","RACE":"AMERICAN INDIAN OR ALASKA NATIVE","ARMCD":"Xan_Hi","TRTSDT":"2014-02-07","TRTEDT":"2014-05-31"},{"STUDYID":"CDISCPILOT01","USUBJID":"01-701-1275","DOMAIN":"ADQS","PARAMCD":"CIBIC","PARAM":"CIBIC+ Global Score","PARAMN":1,"AVISIT":"Week 4","AVISITN":4,"ADT":null,"ADY":null,"AVAL":null,"DTYPE":null,"ANL01FL":"Y","TRT01A":"Xanomeline High Dose","TRT01AN":3,"SAFFL":"Y","ITTFL":"Y","EFFFL":"Y","COMPFL":"N","SITEID":"701","AGE":61,"AGEGR1":"<65","SEX":"M","RACE":"AMERICAN INDIAN OR ALASKA NATIVE","ARMCD":"Xan_Hi","TRTSDT":"2014-02-07","TRTEDT":"2014-05-31"},{"STUDYID":"CDISCPILOT01","USUBJID":"01-701-1275","DOMAIN":"ADQS","PARAMCD":"CIBIC","PARAM":"CIBIC+ Global Score","PARAMN":1,"AVISIT":"Week 6","AVISITN":6,"ADT":null,"ADY":null,"AVAL":null,"DTYPE":null,"ANL01FL":"Y","TRT01A":"Xanomeline High Dose","TRT01AN":3,"SAFFL":"Y","ITTFL":"Y","EFFFL":"Y","COMPFL":"N","SITEID":"701","AGE":61,"AGEGR1":"<65","SEX":"M","RACE":"AMERICAN INDIAN OR ALASKA NATIVE","ARMCD":"Xan_Hi","TRTSDT":"2014-02-07","TRTEDT":"2014-05-31"},{"STUDYID":"CDISCPILOT01","USUBJID":"01-701-1275","DOMAIN":"ADQS","PARAMCD":"CIBIC","PARAM":"CIBIC+ Global Score","PARAMN":1,"AVISIT":"Week 8","AVISITN":8,"ADT":"2014-04-05","ADY":58,"AVAL":3,"DTYPE":null,"ANL01FL":"Y","TRT01A":"Xanomeline High Dose","TRT01AN":3,"SAFFL":"Y","ITTFL":"Y","EFFFL":"Y","COMPFL":"N","SITEID":"701","AGE":61,"AGEGR1":"<65","SEX":"M","RACE":"AMERICAN INDIAN OR ALASKA NATIVE","ARMCD":"Xan_Hi","TRTSDT":"2014-02-07","TRTEDT":"2014-05-31"},{"STUDYID":"CDISCPILOT01","USUBJID":"01-701-1275","DOMAIN":"ADQS","PARAMCD":"CIBIC","PARAM":"CIBIC+ Global Score","PARAMN":1,"AVISIT":"Week 12","AVISITN":12,"ADT":null,"ADY":null,"AVAL":3,"DTYPE":null,"ANL01FL":"Y","TRT01A":"Xanomeline High Dose","TRT01AN":3,"SAFFL":"Y","ITTFL":"Y","EFFFL":"Y","COMPFL":"N","SITEID":"701","AGE":61,"AGEGR1":"<65","SEX":"M","RACE":"AMERICAN INDIAN OR ALASKA NATIVE","ARMCD":"Xan_Hi","TRTSDT":"2014-02-07","TRTEDT":"2014-05-31"},{"STUDYID":"CDISCPILOT01","USUBJID":"01-701-1275","DOMAIN":"ADQS","PARAMCD":"CIBIC","PARAM":"CIBIC+ Global Score","PARAMN":1,"AVISIT":"Week 16","AVISITN":16,"ADT":"2014-06-14","ADY":128,"AVAL":4,"DTYPE":null,"ANL01FL":"Y","TRT01A":"Xanomeline High Dose","TRT01AN":3,"SAFFL":"Y","ITTFL":"Y","EFFFL":"Y","COMPFL":"N","SITEID":"701","AGE":61,"AGEGR1":"<65","SEX":"M","RACE":"AMERICAN INDIAN OR ALASKA NATIVE","ARMCD":"Xan_Hi","TRTSDT":"2014-02-07","TRTEDT":"2014-05-31"},{"STUDYID":"CDISCPILOT01","USUBJID":"01-701-1275","DOMAIN":"ADQS","PARAMCD":"CIBIC","PARAM":"CIBIC+ Global Score","PARAMN":1,"AVISIT":"Week 20","AVISITN":20,"ADT":null,"ADY":null,"AVAL":4,"DTYPE":null,"ANL01FL":"Y","TRT01A":"Xanomeline High Dose","TRT01AN":3,"SAFFL":"Y","ITTFL":"Y","EFFFL":"Y","COMPFL":"N","SITEID":"701","AGE":61,"AGEGR1":"<65","SEX":"M","RACE":"AMERICAN INDIAN OR ALASKA NATIVE","ARMCD":"Xan_Hi","TRTSDT":"2014-02-07","TRTEDT":"2014-05-31"},{"STUDYID":"CDISCPILOT01","USUBJID":"01-701-1275","DOMAIN":"ADQS","PARAMCD":"CIBIC","PARAM":"CIBIC+ Global Score","PARAMN":1,"AVISIT":"Week 24","AVISITN":24,"ADT":null,"ADY":null,"AVAL":4,"DTYPE":"LOCF","ANL01FL":"Y","TRT01A":"Xanomeline High Dose","TRT01AN":3,"SAFFL":"Y","ITTFL":"Y","EFFFL":"Y","COMPFL":"N","SITEID":"701","AGE":61,"AGEGR1":"<65","SEX":"M","RACE":"AMERICAN INDIAN OR ALASKA NATIVE","ARMCD":"Xan_Hi","TRTSDT":"2014-02-07","TRTEDT":"2014-05-31"},{"STUDYID":"CDISCPILOT01","USUBJID":"01-701-1275","DOMAIN":"ADQS","PARAMCD":"CIBIC","PARAM":"CIBIC+ Global Score","PARAMN":1,"AVISIT":"Week 26","AVISITN":26,"ADT":null,"ADY":null,"AVAL":4,"DTYPE":null,"ANL01FL":"Y","TRT01A":"Xanomeline High Dose","TRT01AN":3,"SAFFL":"Y","ITTFL":"Y","EFFFL":"Y","COMPFL":"N","SITEID":"701","AGE":61,"AGEGR1":"<65","SEX":"M","RACE":"AMERICAN INDIAN OR ALASKA NATIVE","ARMCD":"Xan_Hi","TRTSDT":"2014-02-07","TRTEDT":"2014-05-31"},{"STUDYID":"CDISCPILOT01","USUBJID":"01-701-1287","DOMAIN":"ADQS","PARAMCD":"CIBIC","PARAM":"CIBIC+ Global Score","PARAMN":1,"AVISIT":"Week 2","AVISITN":2,"ADT":null,"ADY":null,"AVAL":null,"DTYPE":null,"ANL01FL":"Y","TRT01A":"Xanomeline High Dose","TRT01AN":3,"SAFFL":"Y","ITTFL":"Y","EFFFL":"Y","COMPFL":"Y","SITEID":"701","AGE":56,"AGEGR1":"<65","SEX":"F","RACE":"WHITE","ARMCD":"Xan_Hi","TRTSDT":"2014-01-25","TRTEDT":"2014-07-26"},{"STUDYID":"CDISCPILOT01","USUBJID":"01-701-1287","DOMAIN":"ADQS","PARAMCD":"CIBIC","PARAM":"CIBIC+ Global Score","PARAMN":1,"AVISIT":"Week 4","AVISITN":4,"ADT":null,"ADY":null,"AVAL":null,"DTYPE":null,"ANL01FL":"Y","TRT01A":"Xanomeline High Dose","TRT01AN":3,"SAFFL":"Y","ITTFL":"Y","EFFFL":"Y","COMPFL":"Y","SITEID":"701","AGE":56,"AGEGR1":"<65","SEX":"F","RACE":"WHITE","ARMCD":"Xan_Hi","TRTSDT":"2014-01-25","TRTEDT":"2014-07-26"},{"STUDYID":"CDISCPILOT01","USUBJID":"01-701-1287","DOMAIN":"ADQS","PARAMCD":"CIBIC","PARAM":"CIBIC+ Global Score","PARAMN":1,"AVISIT":"Week 6","AVISITN":6,"ADT":null,"ADY":null,"AVAL":null,"DTYPE":null,"ANL01FL":"Y","TRT01A":"Xanomeline High Dose","TRT01AN":3,"SAFFL":"Y","ITTFL":"Y","EFFFL":"Y","COMPFL":"Y","SITEID":"701","AGE":56,"AGEGR1":"<65","SEX":"F","RACE":"WHITE","ARMCD":"Xan_Hi","TRTSDT":"2014-01-25","TRTEDT":"2014-07-26"},{"STUDYID":"CDISCPILOT01","USUBJID":"01-701-1287","DOMAIN":"ADQS","PARAMCD":"CIBIC","PARAM":"CIBIC+ Global Score","PARAMN":1,"AVISIT":"Week 8","AVISITN":8,"ADT":"2014-03-21","ADY":56,"AVAL":4,"DTYPE":null,"ANL01FL":"Y","TRT01A":"Xanomeline High Dose","TRT01AN":3,"SAFFL":"Y","ITTFL":"Y","EFFFL":"Y","COMPFL":"Y","SITEID":"701","AGE":56,"AGEGR1":"<65","SEX":"F","RACE":"WHITE","ARMCD":"Xan_Hi","TRTSDT":"2014-01-25","TRTEDT":"2014-07-26"},{"STUDYID":"CDISCPILOT01","USUBJID":"01-701-1287","DOMAIN":"ADQS","PARAMCD":"CIBIC","PARAM":"CIBIC+ Global Score","PARAMN":1,"AVISIT":"Week 12","AVISITN":12,"ADT":null,"ADY":null,"AVAL":4,"DTYPE":null,"ANL01FL":"Y","TRT01A":"Xanomeline High Dose","TRT01AN":3,"SAFFL":"Y","ITTFL":"Y","EFFFL":"Y","COMPFL":"Y","SITEID":"701","AGE":56,"AGEGR1":"<65","SEX":"F","RACE":"WHITE","ARMCD":"Xan_Hi","TRTSDT":"2014-01-25","TRTEDT":"2014-07-26"},{"STUDYID":"CDISCPILOT01","USUBJID":"01-701-1287","DOMAIN":"ADQS","PARAMCD":"CIBIC","PARAM":"CIBIC+ Global Score","PARAMN":1,"AVISIT":"Week 16","AVISITN":16,"ADT":"2014-05-15","ADY":111,"AVAL":4,"DTYPE":null,"ANL01FL":"Y","TRT01A":"Xanomeline High Dose","TRT01AN":3,"SAFFL":"Y","ITTFL":"Y","EFFFL":"Y","COMPFL":"Y","SITEID":"701","AGE":56,"AGEGR1":"<65","SEX":"F","RACE":"WHITE","ARMCD":"Xan_Hi","TRTSDT":"2014-01-25","TRTEDT":"2014-07-26"},{"STUDYID":"CDISCPILOT01","USUBJID":"01-701-1287","DOMAIN":"ADQS","PARAMCD":"CIBIC","PARAM":"CIBIC+ Global Score","PARAMN":1,"AVISIT":"Week 20","AVISITN":20,"ADT":null,"ADY":null,"AVAL":4,"DTYPE":null,"ANL01FL":"Y","TRT01A":"Xanomeline High Dose","TRT01AN":3,"SAFFL":"Y","ITTFL":"Y","EFFFL":"Y","COMPFL":"Y","SITEID":"701","AGE":56,"AGEGR1":"<65","SEX":"F","RACE":"WHITE","ARMCD":"Xan_Hi","TRTSDT":"2014-01-25","TRTEDT":"2014-07-26"},{"STUDYID":"CDISCPILOT01","USUBJID":"01-701-1287","DOMAIN":"ADQS","PARAMCD":"CIBIC","PARAM":"CIBIC+ Global Score","PARAMN":1,"AVISIT":"Week 24","AVISITN":24,"ADT":"2014-07-12","ADY":169,"AVAL":4,"DTYPE":null,"ANL01FL":"Y","TRT01A":"Xanomeline High Dose","TRT01AN":3,"SAFFL":"Y","ITTFL":"Y","EFFFL":"Y","COMPFL":"Y","SITEID":"701","AGE":56,"AGEGR1":"<65","SEX":"F","RACE":"WHITE","ARMCD":"Xan_Hi","TRTSDT":"2014-01-25","TRTEDT":"2014-07-26"},{"STUDYID":"CDISCPILOT01","USUBJID":"01-701-1287","DOMAIN":"ADQS","PARAMCD":"CIBIC","PARAM":"CIBIC+ Global Score","PARAMN":1,"AVISIT":"Week 26","AVISITN":26,"ADT":null,"ADY":null,"AVAL":4,"DTYPE":null,"ANL01FL":"Y","TRT01A":"Xanomeline High Dose","TRT01AN":3,"SAFFL":"Y","ITTFL":"Y","EFFFL":"Y","COMPFL":"Y","SITEID":"701","AGE":56,"AGEGR1":"<65","SEX":"F","RACE":"WHITE","ARMCD":"Xan_Hi","TRTSDT":"2014-01-25","TRTEDT":"2014-07-26"},{"STUDYID":"CDISCPILOT01","USUBJID":"01-701-1294","DOMAIN":"ADQS","PARAMCD":"CIBIC","PARAM":"CIBIC+ Global Score","PARAMN":1,"AVISIT":"Week 2","AVISITN":2,"ADT":null,"ADY":null,"AVAL":null,"DTYPE":null,"ANL01FL":"Y","TRT01A":"Xanomeline Low Dose","TRT01AN":2,"SAFFL":"Y","ITTFL":"Y","EFFFL":"Y","COMPFL":"N","SITEID":"701","AGE":67,"AGEGR1":"65-80","SEX":"M","RACE":"WHITE","ARMCD":"Xan_Lo","TRTSDT":"2013-03-24","TRTEDT":"2013-06-14"},{"STUDYID":"CDISCPILOT01","USUBJID":"01-701-1294","DOMAIN":"ADQS","PARAMCD":"CIBIC","PARAM":"CIBIC+ Global Score","PARAMN":1,"AVISIT":"Week 4","AVISITN":4,"ADT":null,"ADY":null,"AVAL":null,"DTYPE":null,"ANL01FL":"Y","TRT01A":"Xanomeline Low Dose","TRT01AN":2,"SAFFL":"Y","ITTFL":"Y","EFFFL":"Y","COMPFL":"N","SITEID":"701","AGE":67,"AGEGR1":"65-80","SEX":"M","RACE":"WHITE","ARMCD":"Xan_Lo","TRTSDT":"2013-03-24","TRTEDT":"2013-06-14"},{"STUDYID":"CDISCPILOT01","USUBJID":"01-701-1294","DOMAIN":"ADQS","PARAMCD":"CIBIC","PARAM":"CIBIC+ Global Score","PARAMN":1,"AVISIT":"Week 6","AVISITN":6,"ADT":null,"ADY":null,"AVAL":null,"DTYPE":null,"ANL01FL":"Y","TRT01A":"Xanomeline Low Dose","TRT01AN":2,"SAFFL":"Y","ITTFL":"Y","EFFFL":"Y","COMPFL":"N","SITEID":"701","AGE":67,"AGEGR1":"65-80","SEX":"M","RACE":"WHITE","ARMCD":"Xan_Lo","TRTSDT":"2013-03-24","TRTEDT":"2013-06-14"},{"STUDYID":"CDISCPILOT01","USUBJID":"01-701-1294","DOMAIN":"ADQS","PARAMCD":"CIBIC","PARAM":"CIBIC+ Global Score","PARAMN":1,"AVISIT":"Week 8","AVISITN":8,"ADT":"2013-05-22","ADY":60,"AVAL":5,"DTYPE":null,"ANL01FL":"Y","TRT01A":"Xanomeline Low Dose","TRT01AN":2,"SAFFL":"Y","ITTFL":"Y","EFFFL":"Y","COMPFL":"N","SITEID":"701","AGE":67,"AGEGR1":"65-80","SEX":"M","RACE":"WHITE","ARMCD":"Xan_Lo","TRTSDT":"2013-03-24","TRTEDT":"2013-06-14"},{"STUDYID":"CDISCPILOT01","USUBJID":"01-701-1294","DOMAIN":"ADQS","PARAMCD":"CIBIC","PARAM":"CIBIC+ Global Score","PARAMN":1,"AVISIT":"Week 12","AVISITN":12,"ADT":"2013-06-14","ADY":83,"AVAL":4,"DTYPE":null,"ANL01FL":"Y","TRT01A":"Xanomeline Low Dose","TRT01AN":2,"SAFFL":"Y","ITTFL":"Y","EFFFL":"Y","COMPFL":"N","SITEID":"701","AGE":67,"AGEGR1":"65-80","SEX":"M","RACE":"WHITE","ARMCD":"Xan_Lo","TRTSDT":"2013-03-24","TRTEDT":"2013-06-14"},{"STUDYID":"CDISCPILOT01","USUBJID":"01-701-1294","DOMAIN":"ADQS","PARAMCD":"CIBIC","PARAM":"CIBIC+ Global Score","PARAMN":1,"AVISIT":"Week 16","AVISITN":16,"ADT":null,"ADY":null,"AVAL":4,"DTYPE":"LOCF","ANL01FL":"Y","TRT01A":"Xanomeline Low Dose","TRT01AN":2,"SAFFL":"Y","ITTFL":"Y","EFFFL":"Y","COMPFL":"N","SITEID":"701","AGE":67,"AGEGR1":"65-80","SEX":"M","RACE":"WHITE","ARMCD":"Xan_Lo","TRTSDT":"2013-03-24","TRTEDT":"2013-06-14"},{"STUDYID":"CDISCPILOT01","USUBJID":"01-701-1294","DOMAIN":"ADQS","PARAMCD":"CIBIC","PARAM":"CIBIC+ Global Score","PARAMN":1,"AVISIT":"Week 20","AVISITN":20,"ADT":null,"ADY":null,"AVAL":4,"DTYPE":null,"ANL01FL":"Y","TRT01A":"Xanomeline Low Dose","TRT01AN":2,"SAFFL":"Y","ITTFL":"Y","EFFFL":"Y","COMPFL":"N","SITEID":"701","AGE":67,"AGEGR1":"65-80","SEX":"M","RACE":"WHITE","ARMCD":"Xan_Lo","TRTSDT":"2013-03-24","TRTEDT":"2013-06-14"},{"STUDYID":"CDISCPILOT01","USUBJID":"01-701-1294","DOMAIN":"ADQS","PARAMCD":"CIBIC","PARAM":"CIBIC+ Global Score","PARAMN":1,"AVISIT":"Week 24","AVISITN":24,"ADT":"2013-10-08","ADY":199,"AVAL":5,"DTYPE":null,"ANL01FL":"Y","TRT01A":"Xanomeline Low Dose","TRT01AN":2,"SAFFL":"Y","ITTFL":"Y","EFFFL":"Y","COMPFL":"N","SITEID":"701","AGE":67,"AGEGR1":"65-80","SEX":"M","RACE":"WHITE","ARMCD":"Xan_Lo","TRTSDT":"2013-03-24","TRTEDT":"2013-06-14"},{"STUDYID":"CDISCPILOT01","USUBJID":"01-701-1294","DOMAIN":"ADQS","PARAMCD":"CIBIC","PARAM":"CIBIC+ Global Score","PARAMN":1,"AVISIT":"Week 26","AVISITN":26,"ADT":null,"ADY":null,"AVAL":5,"DTYPE":null,"ANL01FL":"Y","TRT01A":"Xanomeline Low Dose","TRT01AN":2,"SAFFL":"Y","ITTFL":"Y","EFFFL":"Y","COMPFL":"N","SITEID":"701","AGE":67,"AGEGR1":"65-80","SEX":"M","RACE":"WHITE","ARMCD":"Xan_Lo","TRTSDT":"2013-03-24","TRTEDT":"2013-06-14"},{"STUDYID":"CDISCPILOT01","USUBJID":"01-701-1302","DOMAIN":"ADQS","PARAMCD":"CIBIC","PARAM":"CIBIC+ Global Score","PARAMN":1,"AVISIT":"Week 2","AVISITN":2,"ADT":null,"ADY":null,"AVAL":null,"DTYPE":null,"ANL01FL":"Y","TRT01A":"Xanomeline High Dose","TRT01AN":3,"SAFFL":"Y","ITTFL":"Y","EFFFL":"Y","COMPFL":"N","SITEID":"701","AGE":61,"AGEGR1":"<65","SEX":"M","RACE":"WHITE","ARMCD":"Xan_Hi","TRTSDT":"2013-08-29","TRTEDT":"2013-11-05"},{"STUDYID":"CDISCPILOT01","USUBJID":"01-701-1302","DOMAIN":"ADQS","PARAMCD":"CIBIC","PARAM":"CIBIC+ Global Score","PARAMN":1,"AVISIT":"Week 4","AVISITN":4,"ADT":null,"ADY":null,"AVAL":null,"DTYPE":null,"ANL01FL":"Y","TRT01A":"Xanomeline High Dose","TRT01AN":3,"SAFFL":"Y","ITTFL":"Y","EFFFL":"Y","COMPFL":"N","SITEID":"701","AGE":61,"AGEGR1":"<65","SEX":"M","RACE":"WHITE","ARMCD":"Xan_Hi","TRTSDT":"2013-08-29","TRTEDT":"2013-11-05"},{"STUDYID":"CDISCPILOT01","USUBJID":"01-701-1302","DOMAIN":"ADQS","PARAMCD":"CIBIC","PARAM":"CIBIC+ Global Score","PARAMN":1,"AVISIT":"Week 6","AVISITN":6,"ADT":null,"ADY":null,"AVAL":null,"DTYPE":null,"ANL01FL":"Y","TRT01A":"Xanomeline High Dose","TRT01AN":3,"SAFFL":"Y","ITTFL":"Y","EFFFL":"Y","COMPFL":"N","SITEID":"701","AGE":61,"AGEGR1":"<65","SEX":"M","RACE":"WHITE","ARMCD":"Xan_Hi","TRTSDT":"2013-08-29","TRTEDT":"2013-11-05"},{"STUDYID":"CDISCPILOT01","USUBJID":"01-701-1302","DOMAIN":"ADQS","PARAMCD":"CIBIC","PARAM":"CIBIC+ Global Score","PARAMN":1,"AVISIT":"Week 8","AVISITN":8,"ADT":"2013-10-22","ADY":55,"AVAL":4,"DTYPE":null,"ANL01FL":"Y","TRT01A":"Xanomeline High Dose","TRT01AN":3,"SAFFL":"Y","ITTFL":"Y","EFFFL":"Y","COMPFL":"N","SITEID":"701","AGE":61,"AGEGR1":"<65","SEX":"M","RACE":"WHITE","ARMCD":"Xan_Hi","TRTSDT":"2013-08-29","TRTEDT":"2013-11-05"},{"STUDYID":"CDISCPILOT01","USUBJID":"01-701-1302","DOMAIN":"ADQS","PARAMCD":"CIBIC","PARAM":"CIBIC+ Global Score","PARAMN":1,"AVISIT":"Week 12","AVISITN":12,"ADT":"2013-11-05","ADY":69,"AVAL":5,"DTYPE":null,"ANL01FL":"Y","TRT01A":"Xanomeline High Dose","TRT01AN":3,"SAFFL":"Y","ITTFL":"Y","EFFFL":"Y","COMPFL":"N","SITEID":"701","AGE":61,"AGEGR1":"<65","SEX":"M","RACE":"WHITE","ARMCD":"Xan_Hi","TRTSDT":"2013-08-29","TRTEDT":"2013-11-05"},{"STUDYID":"CDISCPILOT01","USUBJID":"01-701-1302","DOMAIN":"ADQS","PARAMCD":"CIBIC","PARAM":"CIBIC+ Global Score","PARAMN":1,"AVISIT":"Week 16","AVISITN":16,"ADT":null,"ADY":null,"AVAL":5,"DTYPE":"LOCF","ANL01FL":"Y","TRT01A":"Xanomeline High Dose","TRT01AN":3,"SAFFL":"Y","ITTFL":"Y","EFFFL":"Y","COMPFL":"N","SITEID":"701","AGE":61,"AGEGR1":"<65","SEX":"M","RACE":"WHITE","ARMCD":"Xan_Hi","TRTSDT":"2013-08-29","TRTEDT":"2013-11-05"},{"STUDYID":"CDISCPILOT01","USUBJID":"01-701-1302","DOMAIN":"ADQS","PARAMCD":"CIBIC","PARAM":"CIBIC+ Global Score","PARAMN":1,"AVISIT":"Week 20","AVISITN":20,"ADT":null,"ADY":null,"AVAL":5,"DTYPE":null,"ANL01FL":"Y","TRT01A":"Xanomeline High Dose","TRT01AN":3,"SAFFL":"Y","ITTFL":"Y","EFFFL":"Y","COMPFL":"N","SITEID":"701","AGE":61,"AGEGR1":"<65","SEX":"M","RACE":"WHITE","ARMCD":"Xan_Hi","TRTSDT":"2013-08-29","TRTEDT":"2013-11-05"},{"STUDYID":"CDISCPILOT01","USUBJID":"01-701-1302","DOMAIN":"ADQS","PARAMCD":"CIBIC","PARAM":"CIBIC+ Global Score","PARAMN":1,"AVISIT":"Week 24","AVISITN":24,"ADT":"2014-02-13","ADY":169,"AVAL":4,"DTYPE":null,"ANL01FL":"Y","TRT01A":"Xanomeline High Dose","TRT01AN":3,"SAFFL":"Y","ITTFL":"Y","EFFFL":"Y","COMPFL":"N","SITEID":"701","AGE":61,"AGEGR1":"<65","SEX":"M","RACE":"WHITE","ARMCD":"Xan_Hi","TRTSDT":"2013-08-29","TRTEDT":"2013-11-05"},{"STUDYID":"CDISCPILOT01","USUBJID":"01-701-1302","DOMAIN":"ADQS","PARAMCD":"CIBIC","PARAM":"CIBIC+ Global Score","PARAMN":1,"AVISIT":"Week 26","AVISITN":26,"ADT":null,"ADY":null,"AVAL":4,"DTYPE":null,"ANL01FL":"Y","TRT01A":"Xanomeline High Dose","TRT01AN":3,"SAFFL":"Y","ITTFL":"Y","EFFFL":"Y","COMPFL":"N","SITEID":"701","AGE":61,"AGEGR1":"<65","SEX":"M","RACE":"WHITE","ARMCD":"Xan_Hi","TRTSDT":"2013-08-29","TRTEDT":"2013-11-05"},{"STUDYID":"CDISCPILOT01","USUBJID":"01-701-1317","DOMAIN":"ADQS","PARAMCD":"CIBIC","PARAM":"CIBIC+ Global Score","PARAMN":1,"AVISIT":"Week 2","AVISITN":2,"ADT":null,"ADY":null,"AVAL":null,"DTYPE":null,"ANL01FL":"Y","TRT01A":"Xanomeline Low Dose","TRT01AN":2,"SAFFL":"Y","ITTFL":"Y","EFFFL":"Y","COMPFL":"Y","SITEID":"701","AGE":68,"AGEGR1":"65-80","SEX":"M","RACE":"WHITE","ARMCD":"Xan_Lo","TRTSDT":"2014-05-22","TRTEDT":"2014-11-20"},{"STUDYID":"CDISCPILOT01","USUBJID":"01-701-1317","DOMAIN":"ADQS","PARAMCD":"CIBIC","PARAM":"CIBIC+ Global Score","PARAMN":1,"AVISIT":"Week 4","AVISITN":4,"ADT":null,"ADY":null,"AVAL":null,"DTYPE":null,"ANL01FL":"Y","TRT01A":"Xanomeline Low Dose","TRT01AN":2,"SAFFL":"Y","ITTFL":"Y","EFFFL":"Y","COMPFL":"Y","SITEID":"701","AGE":68,"AGEGR1":"65-80","SEX":"M","RACE":"WHITE","ARMCD":"Xan_Lo","TRTSDT":"2014-05-22","TRTEDT":"2014-11-20"},{"STUDYID":"CDISCPILOT01","USUBJID":"01-701-1317","DOMAIN":"ADQS","PARAMCD":"CIBIC","PARAM":"CIBIC+ Global Score","PARAMN":1,"AVISIT":"Week 6","AVISITN":6,"ADT":null,"ADY":null,"AVAL":null,"DTYPE":null,"ANL01FL":"Y","TRT01A":"Xanomeline Low Dose","TRT01AN":2,"SAFFL":"Y","ITTFL":"Y","EFFFL":"Y","COMPFL":"Y","SITEID":"701","AGE":68,"AGEGR1":"65-80","SEX":"M","RACE":"WHITE","ARMCD":"Xan_Lo","TRTSDT":"2014-05-22","TRTEDT":"2014-11-20"},{"STUDYID":"CDISCPILOT01","USUBJID":"01-701-1317","DOMAIN":"ADQS","PARAMCD":"CIBIC","PARAM":"CIBIC+ Global Score","PARAMN":1,"AVISIT":"Week 8","AVISITN":8,"ADT":"2014-07-22","ADY":62,"AVAL":4,"DTYPE":null,"ANL01FL":"Y","TRT01A":"Xanomeline Low Dose","TRT01AN":2,"SAFFL":"Y","ITTFL":"Y","EFFFL":"Y","COMPFL":"Y","SITEID":"701","AGE":68,"AGEGR1":"65-80","SEX":"M","RACE":"WHITE","ARMCD":"Xan_Lo","TRTSDT":"2014-05-22","TRTEDT":"2014-11-20"},{"STUDYID":"CDISCPILOT01","USUBJID":"01-701-1317","DOMAIN":"ADQS","PARAMCD":"CIBIC","PARAM":"CIBIC+ Global Score","PARAMN":1,"AVISIT":"Week 12","AVISITN":12,"ADT":null,"ADY":null,"AVAL":4,"DTYPE":null,"ANL01FL":"Y","TRT01A":"Xanomeline Low Dose","TRT01AN":2,"SAFFL":"Y","ITTFL":"Y","EFFFL":"Y","COMPFL":"Y","SITEID":"701","AGE":68,"AGEGR1":"65-80","SEX":"M","RACE":"WHITE","ARMCD":"Xan_Lo","TRTSDT":"2014-05-22","TRTEDT":"2014-11-20"},{"STUDYID":"CDISCPILOT01","USUBJID":"01-701-1317","DOMAIN":"ADQS","PARAMCD":"CIBIC","PARAM":"CIBIC+ Global Score","PARAMN":1,"AVISIT":"Week 16","AVISITN":16,"ADT":"2014-09-11","ADY":113,"AVAL":4,"DTYPE":null,"ANL01FL":"Y","TRT01A":"Xanomeline Low Dose","TRT01AN":2,"SAFFL":"Y","ITTFL":"Y","EFFFL":"Y","COMPFL":"Y","SITEID":"701","AGE":68,"AGEGR1":"65-80","SEX":"M","RACE":"WHITE","ARMCD":"Xan_Lo","TRTSDT":"2014-05-22","TRTEDT":"2014-11-20"},{"STUDYID":"CDISCPILOT01","USUBJID":"01-701-1317","DOMAIN":"ADQS","PARAMCD":"CIBIC","PARAM":"CIBIC+ Global Score","PARAMN":1,"AVISIT":"Week 20","AVISITN":20,"ADT":null,"ADY":null,"AVAL":4,"DTYPE":null,"ANL01FL":"Y","TRT01A":"Xanomeline Low Dose","TRT01AN":2,"SAFFL":"Y","ITTFL":"Y","EFFFL":"Y","COMPFL":"Y","SITEID":"701","AGE":68,"AGEGR1":"65-80","SEX":"M","RACE":"WHITE","ARMCD":"Xan_Lo","TRTSDT":"2014-05-22","TRTEDT":"2014-11-20"},{"STUDYID":"CDISCPILOT01","USUBJID":"01-701-1317","DOMAIN":"ADQS","PARAMCD":"CIBIC","PARAM":"CIBIC+ Global Score","PARAMN":1,"AVISIT":"Week 24","AVISITN":24,"ADT":"2014-11-06","ADY":169,"AVAL":4,"DTYPE":null,"ANL01FL":"Y","TRT01A":"Xanomeline Low Dose","TRT01AN":2,"SAFFL":"Y","ITTFL":"Y","EFFFL":"Y","COMPFL":"Y","SITEID":"701","AGE":68,"AGEGR1":"65-80","SEX":"M","RACE":"WHITE","ARMCD":"Xan_Lo","TRTSDT":"2014-05-22","TRTEDT":"2014-11-20"},{"STUDYID":"CDISCPILOT01","USUBJID":"01-701-1317","DOMAIN":"ADQS","PARAMCD":"CIBIC","PARAM":"CIBIC+ Global Score","PARAMN":1,"AVISIT":"Week 26","AVISITN":26,"ADT":null,"ADY":null,"AVAL":4,"DTYPE":null,"ANL01FL":"Y","TRT01A":"Xanomeline Low Dose","TRT01AN":2,"SAFFL":"Y","ITTFL":"Y","EFFFL":"Y","COMPFL":"Y","SITEID":"701","AGE":68,"AGEGR1":"65-80","SEX":"M","RACE":"WHITE","ARMCD":"Xan_Lo","TRTSDT":"2014-05-22","TRTEDT":"2014-11-20"},{"STUDYID":"CDISCPILOT01","USUBJID":"01-701-1324","DOMAIN":"ADQS","PARAMCD":"CIBIC","PARAM":"CIBIC+ Global Score","PARAMN":1,"AVISIT":"Week 2","AVISITN":2,"ADT":null,"ADY":null,"AVAL":null,"DTYPE":null,"ANL01FL":"Y","TRT01A":"Xanomeline Low Dose","TRT01AN":2,"SAFFL":"Y","ITTFL":"Y","EFFFL":"Y","COMPFL":"Y","SITEID":"701","AGE":79,"AGEGR1":"65-80","SEX":"M","RACE":"WHITE","ARMCD":"Xan_Lo","TRTSDT":"2012-10-02","TRTEDT":"2013-04-02"},{"STUDYID":"CDISCPILOT01","USUBJID":"01-701-1324","DOMAIN":"ADQS","PARAMCD":"CIBIC","PARAM":"CIBIC+ Global Score","PARAMN":1,"AVISIT":"Week 4","AVISITN":4,"ADT":null,"ADY":null,"AVAL":null,"DTYPE":null,"ANL01FL":"Y","TRT01A":"Xanomeline Low Dose","TRT01AN":2,"SAFFL":"Y","ITTFL":"Y","EFFFL":"Y","COMPFL":"Y","SITEID":"701","AGE":79,"AGEGR1":"65-80","SEX":"M","RACE":"WHITE","ARMCD":"Xan_Lo","TRTSDT":"2012-10-02","TRTEDT":"2013-04-02"},{"STUDYID":"CDISCPILOT01","USUBJID":"01-701-1324","DOMAIN":"ADQS","PARAMCD":"CIBIC","PARAM":"CIBIC+ Global Score","PARAMN":1,"AVISIT":"Week 6","AVISITN":6,"ADT":null,"ADY":null,"AVAL":null,"DTYPE":null,"ANL01FL":"Y","TRT01A":"Xanomeline Low Dose","TRT01AN":2,"SAFFL":"Y","ITTFL":"Y","EFFFL":"Y","COMPFL":"Y","SITEID":"701","AGE":79,"AGEGR1":"65-80","SEX":"M","RACE":"WHITE","ARMCD":"Xan_Lo","TRTSDT":"2012-10-02","TRTEDT":"2013-04-02"},{"STUDYID":"CDISCPILOT01","USUBJID":"01-701-1324","DOMAIN":"ADQS","PARAMCD":"CIBIC","PARAM":"CIBIC+ Global Score","PARAMN":1,"AVISIT":"Week 8","AVISITN":8,"ADT":"2012-11-25","ADY":55,"AVAL":4,"DTYPE":null,"ANL01FL":"Y","TRT01A":"Xanomeline Low Dose","TRT01AN":2,"SAFFL":"Y","ITTFL":"Y","EFFFL":"Y","COMPFL":"Y","SITEID":"701","AGE":79,"AGEGR1":"65-80","SEX":"M","RACE":"WHITE","ARMCD":"Xan_Lo","TRTSDT":"2012-10-02","TRTEDT":"2013-04-02"},{"STUDYID":"CDISCPILOT01","USUBJID":"01-701-1324","DOMAIN":"ADQS","PARAMCD":"CIBIC","PARAM":"CIBIC+ Global Score","PARAMN":1,"AVISIT":"Week 12","AVISITN":12,"ADT":null,"ADY":null,"AVAL":4,"DTYPE":null,"ANL01FL":"Y","TRT01A":"Xanomeline Low Dose","TRT01AN":2,"SAFFL":"Y","ITTFL":"Y","EFFFL":"Y","COMPFL":"Y","SITEID":"701","AGE":79,"AGEGR1":"65-80","SEX":"M","RACE":"WHITE","ARMCD":"Xan_Lo","TRTSDT":"2012-10-02","TRTEDT":"2013-04-02"},{"STUDYID":"CDISCPILOT01","USUBJID":"01-701-1324","DOMAIN":"ADQS","PARAMCD":"CIBIC","PARAM":"CIBIC+ Global Score","PARAMN":1,"AVISIT":"Week 16","AVISITN":16,"ADT":"2013-01-22","ADY":113,"AVAL":4,"DTYPE":null,"ANL01FL":"Y","TRT01A":"Xanomeline Low Dose","TRT01AN":2,"SAFFL":"Y","ITTFL":"Y","EFFFL":"Y","COMPFL":"Y","SITEID":"701","AGE":79,"AGEGR1":"65-80","SEX":"M","RACE":"WHITE","ARMCD":"Xan_Lo","TRTSDT":"2012-10-02","TRTEDT":"2013-04-02"},{"STUDYID":"CDISCPILOT01","USUBJID":"01-701-1324","DOMAIN":"ADQS","PARAMCD":"CIBIC","PARAM":"CIBIC+ Global Score","PARAMN":1,"AVISIT":"Week 20","AVISITN":20,"ADT":null,"ADY":null,"AVAL":4,"DTYPE":null,"ANL01FL":"Y","TRT01A":"Xanomeline Low Dose","TRT01AN":2,"SAFFL":"Y","ITTFL":"Y","EFFFL":"Y","COMPFL":"Y","SITEID":"701","AGE":79,"AGEGR1":"65-80","SEX":"M","RACE":"WHITE","ARMCD":"Xan_Lo","TRTSDT":"2012-10-02","TRTEDT":"2013-04-02"},{"STUDYID":"CDISCPILOT01","USUBJID":"01-701-1324","DOMAIN":"ADQS","PARAMCD":"CIBIC","PARAM":"CIBIC+ Global Score","PARAMN":1,"AVISIT":"Week 24","AVISITN":24,"ADT":"2013-03-19","ADY":169,"AVAL":5,"DTYPE":null,"ANL01FL":"Y","TRT01A":"Xanomeline Low Dose","TRT01AN":2,"SAFFL":"Y","ITTFL":"Y","EFFFL":"Y","COMPFL":"Y","SITEID":"701","AGE":79,"AGEGR1":"65-80","SEX":"M","RACE":"WHITE","ARMCD":"Xan_Lo","TRTSDT":"2012-10-02","TRTEDT":"2013-04-02"},{"STUDYID":"CDISCPILOT01","USUBJID":"01-701-1324","DOMAIN":"ADQS","PARAMCD":"CIBIC","PARAM":"CIBIC+ Global Score","PARAMN":1,"AVISIT":"Week 26","AVISITN":26,"ADT":null,"ADY":null,"AVAL":5,"DTYPE":null,"ANL01FL":"Y","TRT01A":"Xanomeline Low Dose","TRT01AN":2,"SAFFL":"Y","ITTFL":"Y","EFFFL":"Y","COMPFL":"Y","SITEID":"701","AGE":79,"AGEGR1":"65-80","SEX":"M","RACE":"WHITE","ARMCD":"Xan_Lo","TRTSDT":"2012-10-02","TRTEDT":"2013-04-02"},{"STUDYID":"CDISCPILOT01","USUBJID":"01-701-1341","DOMAIN":"ADQS","PARAMCD":"CIBIC","PARAM":"CIBIC+ Global Score","PARAMN":1,"AVISIT":"Week 2","AVISITN":2,"ADT":null,"ADY":null,"AVAL":null,"DTYPE":null,"ANL01FL":"Y","TRT01A":"Xanomeline Low Dose","TRT01AN":2,"SAFFL":"Y","ITTFL":"Y","EFFFL":"Y","COMPFL":"N","SITEID":"701","AGE":51,"AGEGR1":"<65","SEX":"M","RACE":"WHITE","ARMCD":"Xan_Lo","TRTSDT":"2013-01-05","TRTEDT":"2013-01-26"},{"STUDYID":"CDISCPILOT01","USUBJID":"01-701-1341","DOMAIN":"ADQS","PARAMCD":"CIBIC","PARAM":"CIBIC+ Global Score","PARAMN":1,"AVISIT":"Week 4","AVISITN":4,"ADT":"2013-02-07","ADY":34,"AVAL":4,"DTYPE":null,"ANL01FL":"Y","TRT01A":"Xanomeline Low Dose","TRT01AN":2,"SAFFL":"Y","ITTFL":"Y","EFFFL":"Y","COMPFL":"N","SITEID":"701","AGE":51,"AGEGR1":"<65","SEX":"M","RACE":"WHITE","ARMCD":"Xan_Lo","TRTSDT":"2013-01-05","TRTEDT":"2013-01-26"},{"STUDYID":"CDISCPILOT01","USUBJID":"01-701-1341","DOMAIN":"ADQS","PARAMCD":"CIBIC","PARAM":"CIBIC+ Global Score","PARAMN":1,"AVISIT":"Week 6","AVISITN":6,"ADT":null,"ADY":null,"AVAL":4,"DTYPE":null,"ANL01FL":"Y","TRT01A":"Xanomeline Low Dose","TRT01AN":2,"SAFFL":"Y","ITTFL":"Y","EFFFL":"Y","COMPFL":"N","SITEID":"701","AGE":51,"AGEGR1":"<65","SEX":"M","RACE":"WHITE","ARMCD":"Xan_Lo","TRTSDT":"2013-01-05","TRTEDT":"2013-01-26"},{"STUDYID":"CDISCPILOT01","USUBJID":"01-701-1341","DOMAIN":"ADQS","PARAMCD":"CIBIC","PARAM":"CIBIC+ Global Score","PARAMN":1,"AVISIT":"Week 8","AVISITN":8,"ADT":null,"ADY":null,"AVAL":4,"DTYPE":"LOCF","ANL01FL":"Y","TRT01A":"Xanomeline Low Dose","TRT01AN":2,"SAFFL":"Y","ITTFL":"Y","EFFFL":"Y","COMPFL":"N","SITEID":"701","AGE":51,"AGEGR1":"<65","SEX":"M","RACE":"WHITE","ARMCD":"Xan_Lo","TRTSDT":"2013-01-05","TRTEDT":"2013-01-26"},{"STUDYID":"CDISCPILOT01","USUBJID":"01-701-1341","DOMAIN":"ADQS","PARAMCD":"CIBIC","PARAM":"CIBIC+ Global Score","PARAMN":1,"AVISIT":"Week 12","AVISITN":12,"ADT":null,"ADY":null,"AVAL":4,"DTYPE":null,"ANL01FL":"Y","TRT01A":"Xanomeline Low Dose","TRT01AN":2,"SAFFL":"Y","ITTFL":"Y","EFFFL":"Y","COMPFL":"N","SITEID":"701","AGE":51,"AGEGR1":"<65","SEX":"M","RACE":"WHITE","ARMCD":"Xan_Lo","TRTSDT":"2013-01-05","TRTEDT":"2013-01-26"},{"STUDYID":"CDISCPILOT01","USUBJID":"01-701-1341","DOMAIN":"ADQS","PARAMCD":"CIBIC","PARAM":"CIBIC+ Global Score","PARAMN":1,"AVISIT":"Week 16","AVISITN":16,"ADT":null,"ADY":null,"AVAL":4,"DTYPE":"LOCF","ANL01FL":"Y","TRT01A":"Xanomeline Low Dose","TRT01AN":2,"SAFFL":"Y","ITTFL":"Y","EFFFL":"Y","COMPFL":"N","SITEID":"701","AGE":51,"AGEGR1":"<65","SEX":"M","RACE":"WHITE","ARMCD":"Xan_Lo","TRTSDT":"2013-01-05","TRTEDT":"2013-01-26"},{"STUDYID":"CDISCPILOT01","USUBJID":"01-701-1341","DOMAIN":"ADQS","PARAMCD":"CIBIC","PARAM":"CIBIC+ Global Score","PARAMN":1,"AVISIT":"Week 20","AVISITN":20,"ADT":null,"ADY":null,"AVAL":4,"DTYPE":null,"ANL01FL":"Y","TRT01A":"Xanomeline Low Dose","TRT01AN":2,"SAFFL":"Y","ITTFL":"Y","EFFFL":"Y","COMPFL":"N","SITEID":"701","AGE":51,"AGEGR1":"<65","SEX":"M","RACE":"WHITE","ARMCD":"Xan_Lo","TRTSDT":"2013-01-05","TRTEDT":"2013-01-26"},{"STUDYID":"CDISCPILOT01","USUBJID":"01-701-1341","DOMAIN":"ADQS","PARAMCD":"CIBIC","PARAM":"CIBIC+ Global Score","PARAMN":1,"AVISIT":"Week 24","AVISITN":24,"ADT":null,"ADY":null,"AVAL":4,"DTYPE":"LOCF","ANL01FL":"Y","TRT01A":"Xanomeline Low Dose","TRT01AN":2,"SAFFL":"Y","ITTFL":"Y","EFFFL":"Y","COMPFL":"N","SITEID":"701","AGE":51,"AGEGR1":"<65","SEX":"M","RACE":"WHITE","ARMCD":"Xan_Lo","TRTSDT":"2013-01-05","TRTEDT":"2013-01-26"},{"STUDYID":"CDISCPILOT01","USUBJID":"01-701-1341","DOMAIN":"ADQS","PARAMCD":"CIBIC","PARAM":"CIBIC+ Global Score","PARAMN":1,"AVISIT":"Week 26","AVISITN":26,"ADT":null,"ADY":null,"AVAL":4,"DTYPE":null,"ANL01FL":"Y","TRT01A":"Xanomeline Low Dose","TRT01AN":2,"SAFFL":"Y","ITTFL":"Y","EFFFL":"Y","COMPFL":"N","SITEID":"701","AGE":51,"AGEGR1":"<65","SEX":"M","RACE":"WHITE","ARMCD":"Xan_Lo","TRTSDT":"2013-01-05","TRTEDT":"2013-01-26"},{"STUDYID":"CDISCPILOT01","USUBJID":"01-701-1345","DOMAIN":"ADQS","PARAMCD":"CIBIC","PARAM":"CIBIC+ Global Score","PARAMN":1,"AVISIT":"Week 2","AVISITN":2,"ADT":null,"ADY":null,"AVAL":null,"DTYPE":null,"ANL01FL":"Y","TRT01A":"Placebo","TRT01AN":1,"SAFFL":"Y","ITTFL":"Y","EFFFL":"Y","COMPFL":"Y","SITEID":"701","AGE":63,"AGEGR1":"<65","SEX":"F","RACE":"WHITE","ARMCD":"Pbo","TRTSDT":"2013-10-08","TRTEDT":"2014-03-18"},{"STUDYID":"CDISCPILOT01","USUBJID":"01-701-1345","DOMAIN":"ADQS","PARAMCD":"CIBIC","PARAM":"CIBIC+ Global Score","PARAMN":1,"AVISIT":"Week 4","AVISITN":4,"ADT":null,"ADY":null,"AVAL":null,"DTYPE":null,"ANL01FL":"Y","TRT01A":"Placebo","TRT01AN":1,"SAFFL":"Y","ITTFL":"Y","EFFFL":"Y","COMPFL":"Y","SITEID":"701","AGE":63,"AGEGR1":"<65","SEX":"F","RACE":"WHITE","ARMCD":"Pbo","TRTSDT":"2013-10-08","TRTEDT":"2014-03-18"},{"STUDYID":"CDISCPILOT01","USUBJID":"01-701-1345","DOMAIN":"ADQS","PARAMCD":"CIBIC","PARAM":"CIBIC+ Global Score","PARAMN":1,"AVISIT":"Week 6","AVISITN":6,"ADT":null,"ADY":null,"AVAL":null,"DTYPE":null,"ANL01FL":"Y","TRT01A":"Placebo","TRT01AN":1,"SAFFL":"Y","ITTFL":"Y","EFFFL":"Y","COMPFL":"Y","SITEID":"701","AGE":63,"AGEGR1":"<65","SEX":"F","RACE":"WHITE","ARMCD":"Pbo","TRTSDT":"2013-10-08","TRTEDT":"2014-03-18"},{"STUDYID":"CDISCPILOT01","USUBJID":"01-701-1345","DOMAIN":"ADQS","PARAMCD":"CIBIC","PARAM":"CIBIC+ Global Score","PARAMN":1,"AVISIT":"Week 8","AVISITN":8,"ADT":"2013-12-03","ADY":57,"AVAL":4,"DTYPE":null,"ANL01FL":"Y","TRT01A":"Placebo","TRT01AN":1,"SAFFL":"Y","ITTFL":"Y","EFFFL":"Y","COMPFL":"Y","SITEID":"701","AGE":63,"AGEGR1":"<65","SEX":"F","RACE":"WHITE","ARMCD":"Pbo","TRTSDT":"2013-10-08","TRTEDT":"2014-03-18"},{"STUDYID":"CDISCPILOT01","USUBJID":"01-701-1345","DOMAIN":"ADQS","PARAMCD":"CIBIC","PARAM":"CIBIC+ Global Score","PARAMN":1,"AVISIT":"Week 12","AVISITN":12,"ADT":null,"ADY":null,"AVAL":4,"DTYPE":null,"ANL01FL":"Y","TRT01A":"Placebo","TRT01AN":1,"SAFFL":"Y","ITTFL":"Y","EFFFL":"Y","COMPFL":"Y","SITEID":"701","AGE":63,"AGEGR1":"<65","SEX":"F","RACE":"WHITE","ARMCD":"Pbo","TRTSDT":"2013-10-08","TRTEDT":"2014-03-18"},{"STUDYID":"CDISCPILOT01","USUBJID":"01-701-1345","DOMAIN":"ADQS","PARAMCD":"CIBIC","PARAM":"CIBIC+ Global Score","PARAMN":1,"AVISIT":"Week 16","AVISITN":16,"ADT":"2014-01-27","ADY":112,"AVAL":5,"DTYPE":null,"ANL01FL":"Y","TRT01A":"Placebo","TRT01AN":1,"SAFFL":"Y","ITTFL":"Y","EFFFL":"Y","COMPFL":"Y","SITEID":"701","AGE":63,"AGEGR1":"<65","SEX":"F","RACE":"WHITE","ARMCD":"Pbo","TRTSDT":"2013-10-08","TRTEDT":"2014-03-18"},{"STUDYID":"CDISCPILOT01","USUBJID":"01-701-1345","DOMAIN":"ADQS","PARAMCD":"CIBIC","PARAM":"CIBIC+ Global Score","PARAMN":1,"AVISIT":"Week 20","AVISITN":20,"ADT":null,"ADY":null,"AVAL":5,"DTYPE":null,"ANL01FL":"Y","TRT01A":"Placebo","TRT01AN":1,"SAFFL":"Y","ITTFL":"Y","EFFFL":"Y","COMPFL":"Y","SITEID":"701","AGE":63,"AGEGR1":"<65","SEX":"F","RACE":"WHITE","ARMCD":"Pbo","TRTSDT":"2013-10-08","TRTEDT":"2014-03-18"},{"STUDYID":"CDISCPILOT01","USUBJID":"01-701-1345","DOMAIN":"ADQS","PARAMCD":"CIBIC","PARAM":"CIBIC+ Global Score","PARAMN":1,"AVISIT":"Week 24","AVISITN":24,"ADT":"2014-03-18","ADY":162,"AVAL":5,"DTYPE":null,"ANL01FL":"Y","TRT01A":"Placebo","TRT01AN":1,"SAFFL":"Y","ITTFL":"Y","EFFFL":"Y","COMPFL":"Y","SITEID":"701","AGE":63,"AGEGR1":"<65","SEX":"F","RACE":"WHITE","ARMCD":"Pbo","TRTSDT":"2013-10-08","TRTEDT":"2014-03-18"},{"STUDYID":"CDISCPILOT01","USUBJID":"01-701-1345","DOMAIN":"ADQS","PARAMCD":"CIBIC","PARAM":"CIBIC+ Global Score","PARAMN":1,"AVISIT":"Week 26","AVISITN":26,"ADT":null,"ADY":null,"AVAL":5,"DTYPE":null,"ANL01FL":"Y","TRT01A":"Placebo","TRT01AN":1,"SAFFL":"Y","ITTFL":"Y","EFFFL":"Y","COMPFL":"Y","SITEID":"701","AGE":63,"AGEGR1":"<65","SEX":"F","RACE":"WHITE","ARMCD":"Pbo","TRTSDT":"2013-10-08","TRTEDT":"2014-03-18"},{"STUDYID":"CDISCPILOT01","USUBJID":"01-701-1360","DOMAIN":"ADQS","PARAMCD":"CIBIC","PARAM":"CIBIC+ Global Score","PARAMN":1,"AVISIT":"Week 2","AVISITN":2,"ADT":"2013-08-14","ADY":15,"AVAL":4,"DTYPE":null,"ANL01FL":"Y","TRT01A":"Xanomeline High Dose","TRT01AN":3,"SAFFL":"Y","ITTFL":"Y","EFFFL":"Y","COMPFL":"N","SITEID":"701","AGE":67,"AGEGR1":"65-80","SEX":"M","RACE":"WHITE","ARMCD":"Xan_Hi","TRTSDT":"2013-07-31","TRTEDT":"2013-08-05"},{"STUDYID":"CDISCPILOT01","USUBJID":"01-701-1360","DOMAIN":"ADQS","PARAMCD":"CIBIC","PARAM":"CIBIC+ Global Score","PARAMN":1,"AVISIT":"Week 4","AVISITN":4,"ADT":null,"ADY":null,"AVAL":4,"DTYPE":null,"ANL01FL":"Y","TRT01A":"Xanomeline High Dose","TRT01AN":3,"SAFFL":"Y","ITTFL":"Y","EFFFL":"Y","COMPFL":"N","SITEID":"701","AGE":67,"AGEGR1":"65-80","SEX":"M","RACE":"WHITE","ARMCD":"Xan_Hi","TRTSDT":"2013-07-31","TRTEDT":"2013-08-05"},{"STUDYID":"CDISCPILOT01","USUBJID":"01-701-1360","DOMAIN":"ADQS","PARAMCD":"CIBIC","PARAM":"CIBIC+ Global Score","PARAMN":1,"AVISIT":"Week 6","AVISITN":6,"ADT":null,"ADY":null,"AVAL":4,"DTYPE":null,"ANL01FL":"Y","TRT01A":"Xanomeline High Dose","TRT01AN":3,"SAFFL":"Y","ITTFL":"Y","EFFFL":"Y","COMPFL":"N","SITEID":"701","AGE":67,"AGEGR1":"65-80","SEX":"M","RACE":"WHITE","ARMCD":"Xan_Hi","TRTSDT":"2013-07-31","TRTEDT":"2013-08-05"},{"STUDYID":"CDISCPILOT01","USUBJID":"01-701-1360","DOMAIN":"ADQS","PARAMCD":"CIBIC","PARAM":"CIBIC+ Global Score","PARAMN":1,"AVISIT":"Week 8","AVISITN":8,"ADT":null,"ADY":null,"AVAL":4,"DTYPE":"LOCF","ANL01FL":"Y","TRT01A":"Xanomeline High Dose","TRT01AN":3,"SAFFL":"Y","ITTFL":"Y","EFFFL":"Y","COMPFL":"N","SITEID":"701","AGE":67,"AGEGR1":"65-80","SEX":"M","RACE":"WHITE","ARMCD":"Xan_Hi","TRTSDT":"2013-07-31","TRTEDT":"2013-08-05"},{"STUDYID":"CDISCPILOT01","USUBJID":"01-701-1360","DOMAIN":"ADQS","PARAMCD":"CIBIC","PARAM":"CIBIC+ Global Score","PARAMN":1,"AVISIT":"Week 12","AVISITN":12,"ADT":null,"ADY":null,"AVAL":4,"DTYPE":null,"ANL01FL":"Y","TRT01A":"Xanomeline High Dose","TRT01AN":3,"SAFFL":"Y","ITTFL":"Y","EFFFL":"Y","COMPFL":"N","SITEID":"701","AGE":67,"AGEGR1":"65-80","SEX":"M","RACE":"WHITE","ARMCD":"Xan_Hi","TRTSDT":"2013-07-31","TRTEDT":"2013-08-05"},{"STUDYID":"CDISCPILOT01","USUBJID":"01-701-1360","DOMAIN":"ADQS","PARAMCD":"CIBIC","PARAM":"CIBIC+ Global Score","PARAMN":1,"AVISIT":"Week 16","AVISITN":16,"ADT":null,"ADY":null,"AVAL":4,"DTYPE":"LOCF","ANL01FL":"Y","TRT01A":"Xanomeline High Dose","TRT01AN":3,"SAFFL":"Y","ITTFL":"Y","EFFFL":"Y","COMPFL":"N","SITEID":"701","AGE":67,"AGEGR1":"65-80","SEX":"M","RACE":"WHITE","ARMCD":"Xan_Hi","TRTSDT":"2013-07-31","TRTEDT":"2013-08-05"},{"STUDYID":"CDISCPILOT01","USUBJID":"01-701-1360","DOMAIN":"ADQS","PARAMCD":"CIBIC","PARAM":"CIBIC+ Global Score","PARAMN":1,"AVISIT":"Week 20","AVISITN":20,"ADT":null,"ADY":null,"AVAL":4,"DTYPE":null,"ANL01FL":"Y","TRT01A":"Xanomeline High Dose","TRT01AN":3,"SAFFL":"Y","ITTFL":"Y","EFFFL":"Y","COMPFL":"N","SITEID":"701","AGE":67,"AGEGR1":"65-80","SEX":"M","RACE":"WHITE","ARMCD":"Xan_Hi","TRTSDT":"2013-07-31","TRTEDT":"2013-08-05"},{"STUDYID":"CDISCPILOT01","USUBJID":"01-701-1360","DOMAIN":"ADQS","PARAMCD":"CIBIC","PARAM":"CIBIC+ Global Score","PARAMN":1,"AVISIT":"Week 24","AVISITN":24,"ADT":"2014-02-11","ADY":196,"AVAL":4,"DTYPE":null,"ANL01FL":"Y","TRT01A":"Xanomeline High Dose","TRT01AN":3,"SAFFL":"Y","ITTFL":"Y","EFFFL":"Y","COMPFL":"N","SITEID":"701","AGE":67,"AGEGR1":"65-80","SEX":"M","RACE":"WHITE","ARMCD":"Xan_Hi","TRTSDT":"2013-07-31","TRTEDT":"2013-08-05"},{"STUDYID":"CDISCPILOT01","USUBJID":"01-701-1360","DOMAIN":"ADQS","PARAMCD":"CIBIC","PARAM":"CIBIC+ Global Score","PARAMN":1,"AVISIT":"Week 26","AVISITN":26,"ADT":null,"ADY":null,"AVAL":4,"DTYPE":null,"ANL01FL":"Y","TRT01A":"Xanomeline High Dose","TRT01AN":3,"SAFFL":"Y","ITTFL":"Y","EFFFL":"Y","COMPFL":"N","SITEID":"701","AGE":67,"AGEGR1":"65-80","SEX":"M","RACE":"WHITE","ARMCD":"Xan_Hi","TRTSDT":"2013-07-31","TRTEDT":"2013-08-05"},{"STUDYID":"CDISCPILOT01","USUBJID":"01-701-1363","DOMAIN":"ADQS","PARAMCD":"CIBIC","PARAM":"CIBIC+ Global Score","PARAMN":1,"AVISIT":"Week 2","AVISITN":2,"ADT":null,"ADY":null,"AVAL":null,"DTYPE":null,"ANL01FL":"Y","TRT01A":"Placebo","TRT01AN":1,"SAFFL":"Y","ITTFL":"Y","EFFFL":"Y","COMPFL":"Y","SITEID":"701","AGE":81,"AGEGR1":">80","SEX":"F","RACE":"BLACK OR AFRICAN AMERICAN","ARMCD":"Pbo","TRTSDT":"2013-05-30","TRTEDT":"2013-11-27"},{"STUDYID":"CDISCPILOT01","USUBJID":"01-701-1363","DOMAIN":"ADQS","PARAMCD":"CIBIC","PARAM":"CIBIC+ Global Score","PARAMN":1,"AVISIT":"Week 4","AVISITN":4,"ADT":null,"ADY":null,"AVAL":null,"DTYPE":null,"ANL01FL":"Y","TRT01A":"Placebo","TRT01AN":1,"SAFFL":"Y","ITTFL":"Y","EFFFL":"Y","COMPFL":"Y","SITEID":"701","AGE":81,"AGEGR1":">80","SEX":"F","RACE":"BLACK OR AFRICAN AMERICAN","ARMCD":"Pbo","TRTSDT":"2013-05-30","TRTEDT":"2013-11-27"},{"STUDYID":"CDISCPILOT01","USUBJID":"01-701-1363","DOMAIN":"ADQS","PARAMCD":"CIBIC","PARAM":"CIBIC+ Global Score","PARAMN":1,"AVISIT":"Week 6","AVISITN":6,"ADT":null,"ADY":null,"AVAL":null,"DTYPE":null,"ANL01FL":"Y","TRT01A":"Placebo","TRT01AN":1,"SAFFL":"Y","ITTFL":"Y","EFFFL":"Y","COMPFL":"Y","SITEID":"701","AGE":81,"AGEGR1":">80","SEX":"F","RACE":"BLACK OR AFRICAN AMERICAN","ARMCD":"Pbo","TRTSDT":"2013-05-30","TRTEDT":"2013-11-27"},{"STUDYID":"CDISCPILOT01","USUBJID":"01-701-1363","DOMAIN":"ADQS","PARAMCD":"CIBIC","PARAM":"CIBIC+ Global Score","PARAMN":1,"AVISIT":"Week 8","AVISITN":8,"ADT":"2013-07-24","ADY":56,"AVAL":5,"DTYPE":null,"ANL01FL":"Y","TRT01A":"Placebo","TRT01AN":1,"SAFFL":"Y","ITTFL":"Y","EFFFL":"Y","COMPFL":"Y","SITEID":"701","AGE":81,"AGEGR1":">80","SEX":"F","RACE":"BLACK OR AFRICAN AMERICAN","ARMCD":"Pbo","TRTSDT":"2013-05-30","TRTEDT":"2013-11-27"},{"STUDYID":"CDISCPILOT01","USUBJID":"01-701-1363","DOMAIN":"ADQS","PARAMCD":"CIBIC","PARAM":"CIBIC+ Global Score","PARAMN":1,"AVISIT":"Week 12","AVISITN":12,"ADT":null,"ADY":null,"AVAL":5,"DTYPE":null,"ANL01FL":"Y","TRT01A":"Placebo","TRT01AN":1,"SAFFL":"Y","ITTFL":"Y","EFFFL":"Y","COMPFL":"Y","SITEID":"701","AGE":81,"AGEGR1":">80","SEX":"F","RACE":"BLACK OR AFRICAN AMERICAN","ARMCD":"Pbo","TRTSDT":"2013-05-30","TRTEDT":"2013-11-27"},{"STUDYID":"CDISCPILOT01","USUBJID":"01-701-1363","DOMAIN":"ADQS","PARAMCD":"CIBIC","PARAM":"CIBIC+ Global Score","PARAMN":1,"AVISIT":"Week 16","AVISITN":16,"ADT":"2013-09-18","ADY":112,"AVAL":4,"DTYPE":null,"ANL01FL":"Y","TRT01A":"Placebo","TRT01AN":1,"SAFFL":"Y","ITTFL":"Y","EFFFL":"Y","COMPFL":"Y","SITEID":"701","AGE":81,"AGEGR1":">80","SEX":"F","RACE":"BLACK OR AFRICAN AMERICAN","ARMCD":"Pbo","TRTSDT":"2013-05-30","TRTEDT":"2013-11-27"},{"STUDYID":"CDISCPILOT01","USUBJID":"01-701-1363","DOMAIN":"ADQS","PARAMCD":"CIBIC","PARAM":"CIBIC+ Global Score","PARAMN":1,"AVISIT":"Week 20","AVISITN":20,"ADT":null,"ADY":null,"AVAL":4,"DTYPE":null,"ANL01FL":"Y","TRT01A":"Placebo","TRT01AN":1,"SAFFL":"Y","ITTFL":"Y","EFFFL":"Y","COMPFL":"Y","SITEID":"701","AGE":81,"AGEGR1":">80","SEX":"F","RACE":"BLACK OR AFRICAN AMERICAN","ARMCD":"Pbo","TRTSDT":"2013-05-30","TRTEDT":"2013-11-27"},{"STUDYID":"CDISCPILOT01","USUBJID":"01-701-1363","DOMAIN":"ADQS","PARAMCD":"CIBIC","PARAM":"CIBIC+ Global Score","PARAMN":1,"AVISIT":"Week 24","AVISITN":24,"ADT":"2013-11-13","ADY":168,"AVAL":5,"DTYPE":null,"ANL01FL":"Y","TRT01A":"Placebo","TRT01AN":1,"SAFFL":"Y","ITTFL":"Y","EFFFL":"Y","COMPFL":"Y","SITEID":"701","AGE":81,"AGEGR1":">80","SEX":"F","RACE":"BLACK OR AFRICAN AMERICAN","ARMCD":"Pbo","TRTSDT":"2013-05-30","TRTEDT":"2013-11-27"},{"STUDYID":"CDISCPILOT01","USUBJID":"01-701-1363","DOMAIN":"ADQS","PARAMCD":"CIBIC","PARAM":"CIBIC+ Global Score","PARAMN":1,"AVISIT":"Week 26","AVISITN":26,"ADT":null,"ADY":null,"AVAL":5,"DTYPE":null,"ANL01FL":"Y","TRT01A":"Placebo","TRT01AN":1,"SAFFL":"Y","ITTFL":"Y","EFFFL":"Y","COMPFL":"Y","SITEID":"701","AGE":81,"AGEGR1":">80","SEX":"F","RACE":"BLACK OR AFRICAN AMERICAN","ARMCD":"Pbo","TRTSDT":"2013-05-30","TRTEDT":"2013-11-27"},{"STUDYID":"CDISCPILOT01","USUBJID":"01-701-1383","DOMAIN":"ADQS","PARAMCD":"CIBIC","PARAM":"CIBIC+ Global Score","PARAMN":1,"AVISIT":"Week 2","AVISITN":2,"ADT":null,"ADY":null,"AVAL":null,"DTYPE":null,"ANL01FL":"Y","TRT01A":"Xanomeline High Dose","TRT01AN":3,"SAFFL":"Y","ITTFL":"Y","EFFFL":"Y","COMPFL":"Y","SITEID":"701","AGE":72,"AGEGR1":"65-80","SEX":"F","RACE":"WHITE","ARMCD":"Xan_Hi","TRTSDT":"2013-02-04","TRTEDT":"2013-08-06"},{"STUDYID":"CDISCPILOT01","USUBJID":"01-701-1383","DOMAIN":"ADQS","PARAMCD":"CIBIC","PARAM":"CIBIC+ Global Score","PARAMN":1,"AVISIT":"Week 4","AVISITN":4,"ADT":null,"ADY":null,"AVAL":null,"DTYPE":null,"ANL01FL":"Y","TRT01A":"Xanomeline High Dose","TRT01AN":3,"SAFFL":"Y","ITTFL":"Y","EFFFL":"Y","COMPFL":"Y","SITEID":"701","AGE":72,"AGEGR1":"65-80","SEX":"F","RACE":"WHITE","ARMCD":"Xan_Hi","TRTSDT":"2013-02-04","TRTEDT":"2013-08-06"},{"STUDYID":"CDISCPILOT01","USUBJID":"01-701-1383","DOMAIN":"ADQS","PARAMCD":"CIBIC","PARAM":"CIBIC+ Global Score","PARAMN":1,"AVISIT":"Week 6","AVISITN":6,"ADT":null,"ADY":null,"AVAL":null,"DTYPE":null,"ANL01FL":"Y","TRT01A":"Xanomeline High Dose","TRT01AN":3,"SAFFL":"Y","ITTFL":"Y","EFFFL":"Y","COMPFL":"Y","SITEID":"701","AGE":72,"AGEGR1":"65-80","SEX":"F","RACE":"WHITE","ARMCD":"Xan_Hi","TRTSDT":"2013-02-04","TRTEDT":"2013-08-06"},{"STUDYID":"CDISCPILOT01","USUBJID":"01-701-1383","DOMAIN":"ADQS","PARAMCD":"CIBIC","PARAM":"CIBIC+ Global Score","PARAMN":1,"AVISIT":"Week 8","AVISITN":8,"ADT":"2013-04-02","ADY":58,"AVAL":4,"DTYPE":null,"ANL01FL":"Y","TRT01A":"Xanomeline High Dose","TRT01AN":3,"SAFFL":"Y","ITTFL":"Y","EFFFL":"Y","COMPFL":"Y","SITEID":"701","AGE":72,"AGEGR1":"65-80","SEX":"F","RACE":"WHITE","ARMCD":"Xan_Hi","TRTSDT":"2013-02-04","TRTEDT":"2013-08-06"},{"STUDYID":"CDISCPILOT01","USUBJID":"01-701-1383","DOMAIN":"ADQS","PARAMCD":"CIBIC","PARAM":"CIBIC+ Global Score","PARAMN":1,"AVISIT":"Week 12","AVISITN":12,"ADT":null,"ADY":null,"AVAL":4,"DTYPE":null,"ANL01FL":"Y","TRT01A":"Xanomeline High Dose","TRT01AN":3,"SAFFL":"Y","ITTFL":"Y","EFFFL":"Y","COMPFL":"Y","SITEID":"701","AGE":72,"AGEGR1":"65-80","SEX":"F","RACE":"WHITE","ARMCD":"Xan_Hi","TRTSDT":"2013-02-04","TRTEDT":"2013-08-06"},{"STUDYID":"CDISCPILOT01","USUBJID":"01-701-1383","DOMAIN":"ADQS","PARAMCD":"CIBIC","PARAM":"CIBIC+ Global Score","PARAMN":1,"AVISIT":"Week 16","AVISITN":16,"ADT":"2013-05-30","ADY":116,"AVAL":4,"DTYPE":null,"ANL01FL":"Y","TRT01A":"Xanomeline High Dose","TRT01AN":3,"SAFFL":"Y","ITTFL":"Y","EFFFL":"Y","COMPFL":"Y","SITEID":"701","AGE":72,"AGEGR1":"65-80","SEX":"F","RACE":"WHITE","ARMCD":"Xan_Hi","TRTSDT":"2013-02-04","TRTEDT":"2013-08-06"},{"STUDYID":"CDISCPILOT01","USUBJID":"01-701-1383","DOMAIN":"ADQS","PARAMCD":"CIBIC","PARAM":"CIBIC+ Global Score","PARAMN":1,"AVISIT":"Week 20","AVISITN":20,"ADT":null,"ADY":null,"AVAL":4,"DTYPE":null,"ANL01FL":"Y","TRT01A":"Xanomeline High Dose","TRT01AN":3,"SAFFL":"Y","ITTFL":"Y","EFFFL":"Y","COMPFL":"Y","SITEID":"701","AGE":72,"AGEGR1":"65-80","SEX":"F","RACE":"WHITE","ARMCD":"Xan_Hi","TRTSDT":"2013-02-04","TRTEDT":"2013-08-06"},{"STUDYID":"CDISCPILOT01","USUBJID":"01-701-1383","DOMAIN":"ADQS","PARAMCD":"CIBIC","PARAM":"CIBIC+ Global Score","PARAMN":1,"AVISIT":"Week 24","AVISITN":24,"ADT":"2013-07-30","ADY":177,"AVAL":5,"DTYPE":null,"ANL01FL":"Y","TRT01A":"Xanomeline High Dose","TRT01AN":3,"SAFFL":"Y","ITTFL":"Y","EFFFL":"Y","COMPFL":"Y","SITEID":"701","AGE":72,"AGEGR1":"65-80","SEX":"F","RACE":"WHITE","ARMCD":"Xan_Hi","TRTSDT":"2013-02-04","TRTEDT":"2013-08-06"},{"STUDYID":"CDISCPILOT01","USUBJID":"01-701-1383","DOMAIN":"ADQS","PARAMCD":"CIBIC","PARAM":"CIBIC+ Global Score","PARAMN":1,"AVISIT":"Week 26","AVISITN":26,"ADT":null,"ADY":null,"AVAL":5,"DTYPE":null,"ANL01FL":"Y","TRT01A":"Xanomeline High Dose","TRT01AN":3,"SAFFL":"Y","ITTFL":"Y","EFFFL":"Y","COMPFL":"Y","SITEID":"701","AGE":72,"AGEGR1":"65-80","SEX":"F","RACE":"WHITE","ARMCD":"Xan_Hi","TRTSDT":"2013-02-04","TRTEDT":"2013-08-06"},{"STUDYID":"CDISCPILOT01","USUBJID":"01-701-1387","DOMAIN":"ADQS","PARAMCD":"CIBIC","PARAM":"CIBIC+ Global Score","PARAMN":1,"AVISIT":"Week 2","AVISITN":2,"ADT":"2014-03-25","ADY":14,"AVAL":3,"DTYPE":null,"ANL01FL":"Y","TRT01A":"Placebo","TRT01AN":1,"SAFFL":"Y","ITTFL":"Y","EFFFL":"Y","COMPFL":"N","SITEID":"701","AGE":87,"AGEGR1":">80","SEX":"F","RACE":"WHITE","ARMCD":"Pbo","TRTSDT":"2014-03-12","TRTEDT":"2014-03-25"},{"STUDYID":"CDISCPILOT01","USUBJID":"01-701-1387","DOMAIN":"ADQS","PARAMCD":"CIBIC","PARAM":"CIBIC+ Global Score","PARAMN":1,"AVISIT":"Week 4","AVISITN":4,"ADT":null,"ADY":null,"AVAL":3,"DTYPE":null,"ANL01FL":"Y","TRT01A":"Placebo","TRT01AN":1,"SAFFL":"Y","ITTFL":"Y","EFFFL":"Y","COMPFL":"N","SITEID":"701","AGE":87,"AGEGR1":">80","SEX":"F","RACE":"WHITE","ARMCD":"Pbo","TRTSDT":"2014-03-12","TRTEDT":"2014-03-25"},{"STUDYID":"CDISCPILOT01","USUBJID":"01-701-1387","DOMAIN":"ADQS","PARAMCD":"CIBIC","PARAM":"CIBIC+ Global Score","PARAMN":1,"AVISIT":"Week 6","AVISITN":6,"ADT":null,"ADY":null,"AVAL":3,"DTYPE":null,"ANL01FL":"Y","TRT01A":"Placebo","TRT01AN":1,"SAFFL":"Y","ITTFL":"Y","EFFFL":"Y","COMPFL":"N","SITEID":"701","AGE":87,"AGEGR1":">80","SEX":"F","RACE":"WHITE","ARMCD":"Pbo","TRTSDT":"2014-03-12","TRTEDT":"2014-03-25"},{"STUDYID":"CDISCPILOT01","USUBJID":"01-701-1387","DOMAIN":"ADQS","PARAMCD":"CIBIC","PARAM":"CIBIC+ Global Score","PARAMN":1,"AVISIT":"Week 8","AVISITN":8,"ADT":null,"ADY":null,"AVAL":3,"DTYPE":"LOCF","ANL01FL":"Y","TRT01A":"Placebo","TRT01AN":1,"SAFFL":"Y","ITTFL":"Y","EFFFL":"Y","COMPFL":"N","SITEID":"701","AGE":87,"AGEGR1":">80","SEX":"F","RACE":"WHITE","ARMCD":"Pbo","TRTSDT":"2014-03-12","TRTEDT":"2014-03-25"},{"STUDYID":"CDISCPILOT01","USUBJID":"01-701-1387","DOMAIN":"ADQS","PARAMCD":"CIBIC","PARAM":"CIBIC+ Global Score","PARAMN":1,"AVISIT":"Week 12","AVISITN":12,"ADT":null,"ADY":null,"AVAL":3,"DTYPE":null,"ANL01FL":"Y","TRT01A":"Placebo","TRT01AN":1,"SAFFL":"Y","ITTFL":"Y","EFFFL":"Y","COMPFL":"N","SITEID":"701","AGE":87,"AGEGR1":">80","SEX":"F","RACE":"WHITE","ARMCD":"Pbo","TRTSDT":"2014-03-12","TRTEDT":"2014-03-25"},{"STUDYID":"CDISCPILOT01","USUBJID":"01-701-1387","DOMAIN":"ADQS","PARAMCD":"CIBIC","PARAM":"CIBIC+ Global Score","PARAMN":1,"AVISIT":"Week 16","AVISITN":16,"ADT":null,"ADY":null,"AVAL":3,"DTYPE":"LOCF","ANL01FL":"Y","TRT01A":"Placebo","TRT01AN":1,"SAFFL":"Y","ITTFL":"Y","EFFFL":"Y","COMPFL":"N","SITEID":"701","AGE":87,"AGEGR1":">80","SEX":"F","RACE":"WHITE","ARMCD":"Pbo","TRTSDT":"2014-03-12","TRTEDT":"2014-03-25"},{"STUDYID":"CDISCPILOT01","USUBJID":"01-701-1387","DOMAIN":"ADQS","PARAMCD":"CIBIC","PARAM":"CIBIC+ Global Score","PARAMN":1,"AVISIT":"Week 20","AVISITN":20,"ADT":null,"ADY":null,"AVAL":3,"DTYPE":null,"ANL01FL":"Y","TRT01A":"Placebo","TRT01AN":1,"SAFFL":"Y","ITTFL":"Y","EFFFL":"Y","COMPFL":"N","SITEID":"701","AGE":87,"AGEGR1":">80","SEX":"F","RACE":"WHITE","ARMCD":"Pbo","TRTSDT":"2014-03-12","TRTEDT":"2014-03-25"},{"STUDYID":"CDISCPILOT01","USUBJID":"01-701-1387","DOMAIN":"ADQS","PARAMCD":"CIBIC","PARAM":"CIBIC+ Global Score","PARAMN":1,"AVISIT":"Week 24","AVISITN":24,"ADT":"2014-08-27","ADY":169,"AVAL":6,"DTYPE":null,"ANL01FL":"Y","TRT01A":"Placebo","TRT01AN":1,"SAFFL":"Y","ITTFL":"Y","EFFFL":"Y","COMPFL":"N","SITEID":"701","AGE":87,"AGEGR1":">80","SEX":"F","RACE":"WHITE","ARMCD":"Pbo","TRTSDT":"2014-03-12","TRTEDT":"2014-03-25"},{"STUDYID":"CDISCPILOT01","USUBJID":"01-701-1387","DOMAIN":"ADQS","PARAMCD":"CIBIC","PARAM":"CIBIC+ Global Score","PARAMN":1,"AVISIT":"Week 26","AVISITN":26,"ADT":null,"ADY":null,"AVAL":6,"DTYPE":null,"ANL01FL":"Y","TRT01A":"Placebo","TRT01AN":1,"SAFFL":"Y","ITTFL":"Y","EFFFL":"Y","COMPFL":"N","SITEID":"701","AGE":87,"AGEGR1":">80","SEX":"F","RACE":"WHITE","ARMCD":"Pbo","TRTSDT":"2014-03-12","TRTEDT":"2014-03-25"},{"STUDYID":"CDISCPILOT01","USUBJID":"01-701-1392","DOMAIN":"ADQS","PARAMCD":"CIBIC","PARAM":"CIBIC+ Global Score","PARAMN":1,"AVISIT":"Week 2","AVISITN":2,"ADT":null,"ADY":null,"AVAL":null,"DTYPE":null,"ANL01FL":"Y","TRT01A":"Placebo","TRT01AN":1,"SAFFL":"Y","ITTFL":"Y","EFFFL":"Y","COMPFL":"Y","SITEID":"701","AGE":78,"AGEGR1":"65-80","SEX":"M","RACE":"WHITE","ARMCD":"Pbo","TRTSDT":"2012-10-28","TRTEDT":"2013-04-28"},{"STUDYID":"CDISCPILOT01","USUBJID":"01-701-1392","DOMAIN":"ADQS","PARAMCD":"CIBIC","PARAM":"CIBIC+ Global Score","PARAMN":1,"AVISIT":"Week 4","AVISITN":4,"ADT":null,"ADY":null,"AVAL":null,"DTYPE":null,"ANL01FL":"Y","TRT01A":"Placebo","TRT01AN":1,"SAFFL":"Y","ITTFL":"Y","EFFFL":"Y","COMPFL":"Y","SITEID":"701","AGE":78,"AGEGR1":"65-80","SEX":"M","RACE":"WHITE","ARMCD":"Pbo","TRTSDT":"2012-10-28","TRTEDT":"2013-04-28"},{"STUDYID":"CDISCPILOT01","USUBJID":"01-701-1392","DOMAIN":"ADQS","PARAMCD":"CIBIC","PARAM":"CIBIC+ Global Score","PARAMN":1,"AVISIT":"Week 6","AVISITN":6,"ADT":null,"ADY":null,"AVAL":null,"DTYPE":null,"ANL01FL":"Y","TRT01A":"Placebo","TRT01AN":1,"SAFFL":"Y","ITTFL":"Y","EFFFL":"Y","COMPFL":"Y","SITEID":"701","AGE":78,"AGEGR1":"65-80","SEX":"M","RACE":"WHITE","ARMCD":"Pbo","TRTSDT":"2012-10-28","TRTEDT":"2013-04-28"},{"STUDYID":"CDISCPILOT01","USUBJID":"01-701-1392","DOMAIN":"ADQS","PARAMCD":"CIBIC","PARAM":"CIBIC+ Global Score","PARAMN":1,"AVISIT":"Week 8","AVISITN":8,"ADT":"2012-12-20","ADY":54,"AVAL":4,"DTYPE":null,"ANL01FL":"Y","TRT01A":"Placebo","TRT01AN":1,"SAFFL":"Y","ITTFL":"Y","EFFFL":"Y","COMPFL":"Y","SITEID":"701","AGE":78,"AGEGR1":"65-80","SEX":"M","RACE":"WHITE","ARMCD":"Pbo","TRTSDT":"2012-10-28","TRTEDT":"2013-04-28"},{"STUDYID":"CDISCPILOT01","USUBJID":"01-701-1392","DOMAIN":"ADQS","PARAMCD":"CIBIC","PARAM":"CIBIC+ Global Score","PARAMN":1,"AVISIT":"Week 12","AVISITN":12,"ADT":null,"ADY":null,"AVAL":4,"DTYPE":null,"ANL01FL":"Y","TRT01A":"Placebo","TRT01AN":1,"SAFFL":"Y","ITTFL":"Y","EFFFL":"Y","COMPFL":"Y","SITEID":"701","AGE":78,"AGEGR1":"65-80","SEX":"M","RACE":"WHITE","ARMCD":"Pbo","TRTSDT":"2012-10-28","TRTEDT":"2013-04-28"},{"STUDYID":"CDISCPILOT01","USUBJID":"01-701-1392","DOMAIN":"ADQS","PARAMCD":"CIBIC","PARAM":"CIBIC+ Global Score","PARAMN":1,"AVISIT":"Week 16","AVISITN":16,"ADT":"2013-02-17","ADY":113,"AVAL":5,"DTYPE":null,"ANL01FL":"Y","TRT01A":"Placebo","TRT01AN":1,"SAFFL":"Y","ITTFL":"Y","EFFFL":"Y","COMPFL":"Y","SITEID":"701","AGE":78,"AGEGR1":"65-80","SEX":"M","RACE":"WHITE","ARMCD":"Pbo","TRTSDT":"2012-10-28","TRTEDT":"2013-04-28"},{"STUDYID":"CDISCPILOT01","USUBJID":"01-701-1392","DOMAIN":"ADQS","PARAMCD":"CIBIC","PARAM":"CIBIC+ Global Score","PARAMN":1,"AVISIT":"Week 20","AVISITN":20,"ADT":null,"ADY":null,"AVAL":5,"DTYPE":null,"ANL01FL":"Y","TRT01A":"Placebo","TRT01AN":1,"SAFFL":"Y","ITTFL":"Y","EFFFL":"Y","COMPFL":"Y","SITEID":"701","AGE":78,"AGEGR1":"65-80","SEX":"M","RACE":"WHITE","ARMCD":"Pbo","TRTSDT":"2012-10-28","TRTEDT":"2013-04-28"},{"STUDYID":"CDISCPILOT01","USUBJID":"01-701-1392","DOMAIN":"ADQS","PARAMCD":"CIBIC","PARAM":"CIBIC+ Global Score","PARAMN":1,"AVISIT":"Week 24","AVISITN":24,"ADT":"2013-04-15","ADY":170,"AVAL":4,"DTYPE":null,"ANL01FL":"Y","TRT01A":"Placebo","TRT01AN":1,"SAFFL":"Y","ITTFL":"Y","EFFFL":"Y","COMPFL":"Y","SITEID":"701","AGE":78,"AGEGR1":"65-80","SEX":"M","RACE":"WHITE","ARMCD":"Pbo","TRTSDT":"2012-10-28","TRTEDT":"2013-04-28"},{"STUDYID":"CDISCPILOT01","USUBJID":"01-701-1392","DOMAIN":"ADQS","PARAMCD":"CIBIC","PARAM":"CIBIC+ Global Score","PARAMN":1,"AVISIT":"Week 26","AVISITN":26,"ADT":null,"ADY":null,"AVAL":4,"DTYPE":null,"ANL01FL":"Y","TRT01A":"Placebo","TRT01AN":1,"SAFFL":"Y","ITTFL":"Y","EFFFL":"Y","COMPFL":"Y","SITEID":"701","AGE":78,"AGEGR1":"65-80","SEX":"M","RACE":"WHITE","ARMCD":"Pbo","TRTSDT":"2012-10-28","TRTEDT":"2013-04-28"},{"STUDYID":"CDISCPILOT01","USUBJID":"01-701-1415","DOMAIN":"ADQS","PARAMCD":"CIBIC","PARAM":"CIBIC+ Global Score","PARAMN":1,"AVISIT":"Week 2","AVISITN":2,"ADT":null,"ADY":null,"AVAL":null,"DTYPE":null,"ANL01FL":"Y","TRT01A":"Placebo","TRT01AN":1,"SAFFL":"Y","ITTFL":"Y","EFFFL":"Y","COMPFL":"Y","SITEID":"701","AGE":85,"AGEGR1":">80","SEX":"M","RACE":"WHITE","ARMCD":"Pbo","TRTSDT":"2013-09-23","TRTEDT":"2014-03-24"},{"STUDYID":"CDISCPILOT01","USUBJID":"01-701-1415","DOMAIN":"ADQS","PARAMCD":"CIBIC","PARAM":"CIBIC+ Global Score","PARAMN":1,"AVISIT":"Week 4","AVISITN":4,"ADT":null,"ADY":null,"AVAL":null,"DTYPE":null,"ANL01FL":"Y","TRT01A":"Placebo","TRT01AN":1,"SAFFL":"Y","ITTFL":"Y","EFFFL":"Y","COMPFL":"Y","SITEID":"701","AGE":85,"AGEGR1":">80","SEX":"M","RACE":"WHITE","ARMCD":"Pbo","TRTSDT":"2013-09-23","TRTEDT":"2014-03-24"},{"STUDYID":"CDISCPILOT01","USUBJID":"01-701-1415","DOMAIN":"ADQS","PARAMCD":"CIBIC","PARAM":"CIBIC+ Global Score","PARAMN":1,"AVISIT":"Week 6","AVISITN":6,"ADT":null,"ADY":null,"AVAL":null,"DTYPE":null,"ANL01FL":"Y","TRT01A":"Placebo","TRT01AN":1,"SAFFL":"Y","ITTFL":"Y","EFFFL":"Y","COMPFL":"Y","SITEID":"701","AGE":85,"AGEGR1":">80","SEX":"M","RACE":"WHITE","ARMCD":"Pbo","TRTSDT":"2013-09-23","TRTEDT":"2014-03-24"},{"STUDYID":"CDISCPILOT01","USUBJID":"01-701-1415","DOMAIN":"ADQS","PARAMCD":"CIBIC","PARAM":"CIBIC+ Global Score","PARAMN":1,"AVISIT":"Week 8","AVISITN":8,"ADT":"2013-11-21","ADY":60,"AVAL":5,"DTYPE":null,"ANL01FL":"Y","TRT01A":"Placebo","TRT01AN":1,"SAFFL":"Y","ITTFL":"Y","EFFFL":"Y","COMPFL":"Y","SITEID":"701","AGE":85,"AGEGR1":">80","SEX":"M","RACE":"WHITE","ARMCD":"Pbo","TRTSDT":"2013-09-23","TRTEDT":"2014-03-24"},{"STUDYID":"CDISCPILOT01","USUBJID":"01-701-1415","DOMAIN":"ADQS","PARAMCD":"CIBIC","PARAM":"CIBIC+ Global Score","PARAMN":1,"AVISIT":"Week 12","AVISITN":12,"ADT":null,"ADY":null,"AVAL":5,"DTYPE":null,"ANL01FL":"Y","TRT01A":"Placebo","TRT01AN":1,"SAFFL":"Y","ITTFL":"Y","EFFFL":"Y","COMPFL":"Y","SITEID":"701","AGE":85,"AGEGR1":">80","SEX":"M","RACE":"WHITE","ARMCD":"Pbo","TRTSDT":"2013-09-23","TRTEDT":"2014-03-24"},{"STUDYID":"CDISCPILOT01","USUBJID":"01-701-1415","DOMAIN":"ADQS","PARAMCD":"CIBIC","PARAM":"CIBIC+ Global Score","PARAMN":1,"AVISIT":"Week 16","AVISITN":16,"ADT":"2014-01-14","ADY":114,"AVAL":4,"DTYPE":null,"ANL01FL":"Y","TRT01A":"Placebo","TRT01AN":1,"SAFFL":"Y","ITTFL":"Y","EFFFL":"Y","COMPFL":"Y","SITEID":"701","AGE":85,"AGEGR1":">80","SEX":"M","RACE":"WHITE","ARMCD":"Pbo","TRTSDT":"2013-09-23","TRTEDT":"2014-03-24"},{"STUDYID":"CDISCPILOT01","USUBJID":"01-701-1415","DOMAIN":"ADQS","PARAMCD":"CIBIC","PARAM":"CIBIC+ Global Score","PARAMN":1,"AVISIT":"Week 20","AVISITN":20,"ADT":null,"ADY":null,"AVAL":4,"DTYPE":null,"ANL01FL":"Y","TRT01A":"Placebo","TRT01AN":1,"SAFFL":"Y","ITTFL":"Y","EFFFL":"Y","COMPFL":"Y","SITEID":"701","AGE":85,"AGEGR1":">80","SEX":"M","RACE":"WHITE","ARMCD":"Pbo","TRTSDT":"2013-09-23","TRTEDT":"2014-03-24"},{"STUDYID":"CDISCPILOT01","USUBJID":"01-701-1415","DOMAIN":"ADQS","PARAMCD":"CIBIC","PARAM":"CIBIC+ Global Score","PARAMN":1,"AVISIT":"Week 24","AVISITN":24,"ADT":"2014-03-10","ADY":169,"AVAL":4,"DTYPE":null,"ANL01FL":"Y","TRT01A":"Placebo","TRT01AN":1,"SAFFL":"Y","ITTFL":"Y","EFFFL":"Y","COMPFL":"Y","SITEID":"701","AGE":85,"AGEGR1":">80","SEX":"M","RACE":"WHITE","ARMCD":"Pbo","TRTSDT":"2013-09-23","TRTEDT":"2014-03-24"},{"STUDYID":"CDISCPILOT01","USUBJID":"01-701-1415","DOMAIN":"ADQS","PARAMCD":"CIBIC","PARAM":"CIBIC+ Global Score","PARAMN":1,"AVISIT":"Week 26","AVISITN":26,"ADT":null,"ADY":null,"AVAL":4,"DTYPE":null,"ANL01FL":"Y","TRT01A":"Placebo","TRT01AN":1,"SAFFL":"Y","ITTFL":"Y","EFFFL":"Y","COMPFL":"Y","SITEID":"701","AGE":85,"AGEGR1":">80","SEX":"M","RACE":"WHITE","ARMCD":"Pbo","TRTSDT":"2013-09-23","TRTEDT":"2014-03-24"},{"STUDYID":"CDISCPILOT01","USUBJID":"01-701-1429","DOMAIN":"ADQS","PARAMCD":"CIBIC","PARAM":"CIBIC+ Global Score","PARAMN":1,"AVISIT":"Week 2","AVISITN":2,"ADT":null,"ADY":null,"AVAL":null,"DTYPE":null,"ANL01FL":"Y","TRT01A":"Xanomeline Low Dose","TRT01AN":2,"SAFFL":"Y","ITTFL":"Y","EFFFL":"Y","COMPFL":"N","SITEID":"701","AGE":84,"AGEGR1":">80","SEX":"F","RACE":"WHITE","ARMCD":"Xan_Lo","TRTSDT":"2013-03-19","TRTEDT":"2013-04-30"},{"STUDYID":"CDISCPILOT01","USUBJID":"01-701-1429","DOMAIN":"ADQS","PARAMCD":"CIBIC","PARAM":"CIBIC+ Global Score","PARAMN":1,"AVISIT":"Week 4","AVISITN":4,"ADT":null,"ADY":null,"AVAL":null,"DTYPE":null,"ANL01FL":"Y","TRT01A":"Xanomeline Low Dose","TRT01AN":2,"SAFFL":"Y","ITTFL":"Y","EFFFL":"Y","COMPFL":"N","SITEID":"701","AGE":84,"AGEGR1":">80","SEX":"F","RACE":"WHITE","ARMCD":"Xan_Lo","TRTSDT":"2013-03-19","TRTEDT":"2013-04-30"},{"STUDYID":"CDISCPILOT01","USUBJID":"01-701-1429","DOMAIN":"ADQS","PARAMCD":"CIBIC","PARAM":"CIBIC+ Global Score","PARAMN":1,"AVISIT":"Week 6","AVISITN":6,"ADT":"2013-04-30","ADY":43,"AVAL":3,"DTYPE":null,"ANL01FL":"Y","TRT01A":"Xanomeline Low Dose","TRT01AN":2,"SAFFL":"Y","ITTFL":"Y","EFFFL":"Y","COMPFL":"N","SITEID":"701","AGE":84,"AGEGR1":">80","SEX":"F","RACE":"WHITE","ARMCD":"Xan_Lo","TRTSDT":"2013-03-19","TRTEDT":"2013-04-30"},{"STUDYID":"CDISCPILOT01","USUBJID":"01-701-1429","DOMAIN":"ADQS","PARAMCD":"CIBIC","PARAM":"CIBIC+ Global Score","PARAMN":1,"AVISIT":"Week 8","AVISITN":8,"ADT":null,"ADY":null,"AVAL":3,"DTYPE":"LOCF","ANL01FL":"Y","TRT01A":"Xanomeline Low Dose","TRT01AN":2,"SAFFL":"Y","ITTFL":"Y","EFFFL":"Y","COMPFL":"N","SITEID":"701","AGE":84,"AGEGR1":">80","SEX":"F","RACE":"WHITE","ARMCD":"Xan_Lo","TRTSDT":"2013-03-19","TRTEDT":"2013-04-30"},{"STUDYID":"CDISCPILOT01","USUBJID":"01-701-1429","DOMAIN":"ADQS","PARAMCD":"CIBIC","PARAM":"CIBIC+ Global Score","PARAMN":1,"AVISIT":"Week 12","AVISITN":12,"ADT":null,"ADY":null,"AVAL":3,"DTYPE":null,"ANL01FL":"Y","TRT01A":"Xanomeline Low Dose","TRT01AN":2,"SAFFL":"Y","ITTFL":"Y","EFFFL":"Y","COMPFL":"N","SITEID":"701","AGE":84,"AGEGR1":">80","SEX":"F","RACE":"WHITE","ARMCD":"Xan_Lo","TRTSDT":"2013-03-19","TRTEDT":"2013-04-30"},{"STUDYID":"CDISCPILOT01","USUBJID":"01-701-1429","DOMAIN":"ADQS","PARAMCD":"CIBIC","PARAM":"CIBIC+ Global Score","PARAMN":1,"AVISIT":"Week 16","AVISITN":16,"ADT":null,"ADY":null,"AVAL":3,"DTYPE":"LOCF","ANL01FL":"Y","TRT01A":"Xanomeline Low Dose","TRT01AN":2,"SAFFL":"Y","ITTFL":"Y","EFFFL":"Y","COMPFL":"N","SITEID":"701","AGE":84,"AGEGR1":">80","SEX":"F","RACE":"WHITE","ARMCD":"Xan_Lo","TRTSDT":"2013-03-19","TRTEDT":"2013-04-30"},{"STUDYID":"CDISCPILOT01","USUBJID":"01-701-1429","DOMAIN":"ADQS","PARAMCD":"CIBIC","PARAM":"CIBIC+ Global Score","PARAMN":1,"AVISIT":"Week 20","AVISITN":20,"ADT":null,"ADY":null,"AVAL":3,"DTYPE":null,"ANL01FL":"Y","TRT01A":"Xanomeline Low Dose","TRT01AN":2,"SAFFL":"Y","ITTFL":"Y","EFFFL":"Y","COMPFL":"N","SITEID":"701","AGE":84,"AGEGR1":">80","SEX":"F","RACE":"WHITE","ARMCD":"Xan_Lo","TRTSDT":"2013-03-19","TRTEDT":"2013-04-30"},{"STUDYID":"CDISCPILOT01","USUBJID":"01-701-1429","DOMAIN":"ADQS","PARAMCD":"CIBIC","PARAM":"CIBIC+ Global Score","PARAMN":1,"AVISIT":"Week 24","AVISITN":24,"ADT":null,"ADY":null,"AVAL":3,"DTYPE":"LOCF","ANL01FL":"Y","TRT01A":"Xanomeline Low Dose","TRT01AN":2,"SAFFL":"Y","ITTFL":"Y","EFFFL":"Y","COMPFL":"N","SITEID":"701","AGE":84,"AGEGR1":">80","SEX":"F","RACE":"WHITE","ARMCD":"Xan_Lo","TRTSDT":"2013-03-19","TRTEDT":"2013-04-30"},{"STUDYID":"CDISCPILOT01","USUBJID":"01-701-1429","DOMAIN":"ADQS","PARAMCD":"CIBIC","PARAM":"CIBIC+ Global Score","PARAMN":1,"AVISIT":"Week 26","AVISITN":26,"ADT":null,"ADY":null,"AVAL":3,"DTYPE":null,"ANL01FL":"Y","TRT01A":"Xanomeline Low Dose","TRT01AN":2,"SAFFL":"Y","ITTFL":"Y","EFFFL":"Y","COMPFL":"N","SITEID":"701","AGE":84,"AGEGR1":">80","SEX":"F","RACE":"WHITE","ARMCD":"Xan_Lo","TRTSDT":"2013-03-19","TRTEDT":"2013-04-30"},{"STUDYID":"CDISCPILOT01","USUBJID":"01-701-1440","DOMAIN":"ADQS","PARAMCD":"CIBIC","PARAM":"CIBIC+ Global Score","PARAMN":1,"AVISIT":"Week 2","AVISITN":2,"ADT":null,"ADY":null,"AVAL":null,"DTYPE":null,"ANL01FL":"Y","TRT01A":"Placebo","TRT01AN":1,"SAFFL":"Y","ITTFL":"Y","EFFFL":"Y","COMPFL":"Y","SITEID":"701","AGE":70,"AGEGR1":"65-80","SEX":"M","RACE":"WHITE","ARMCD":"Pbo","TRTSDT":"2013-08-08","TRTEDT":"2014-02-05"},{"STUDYID":"CDISCPILOT01","USUBJID":"01-701-1440","DOMAIN":"ADQS","PARAMCD":"CIBIC","PARAM":"CIBIC+ Global Score","PARAMN":1,"AVISIT":"Week 4","AVISITN":4,"ADT":null,"ADY":null,"AVAL":null,"DTYPE":null,"ANL01FL":"Y","TRT01A":"Placebo","TRT01AN":1,"SAFFL":"Y","ITTFL":"Y","EFFFL":"Y","COMPFL":"Y","SITEID":"701","AGE":70,"AGEGR1":"65-80","SEX":"M","RACE":"WHITE","ARMCD":"Pbo","TRTSDT":"2013-08-08","TRTEDT":"2014-02-05"},{"STUDYID":"CDISCPILOT01","USUBJID":"01-701-1440","DOMAIN":"ADQS","PARAMCD":"CIBIC","PARAM":"CIBIC+ Global Score","PARAMN":1,"AVISIT":"Week 6","AVISITN":6,"ADT":null,"ADY":null,"AVAL":null,"DTYPE":null,"ANL01FL":"Y","TRT01A":"Placebo","TRT01AN":1,"SAFFL":"Y","ITTFL":"Y","EFFFL":"Y","COMPFL":"Y","SITEID":"701","AGE":70,"AGEGR1":"65-80","SEX":"M","RACE":"WHITE","ARMCD":"Pbo","TRTSDT":"2013-08-08","TRTEDT":"2014-02-05"},{"STUDYID":"CDISCPILOT01","USUBJID":"01-701-1440","DOMAIN":"ADQS","PARAMCD":"CIBIC","PARAM":"CIBIC+ Global Score","PARAMN":1,"AVISIT":"Week 8","AVISITN":8,"ADT":"2013-10-03","ADY":57,"AVAL":3,"DTYPE":null,"ANL01FL":"Y","TRT01A":"Placebo","TRT01AN":1,"SAFFL":"Y","ITTFL":"Y","EFFFL":"Y","COMPFL":"Y","SITEID":"701","AGE":70,"AGEGR1":"65-80","SEX":"M","RACE":"WHITE","ARMCD":"Pbo","TRTSDT":"2013-08-08","TRTEDT":"2014-02-05"},{"STUDYID":"CDISCPILOT01","USUBJID":"01-701-1440","DOMAIN":"ADQS","PARAMCD":"CIBIC","PARAM":"CIBIC+ Global Score","PARAMN":1,"AVISIT":"Week 12","AVISITN":12,"ADT":null,"ADY":null,"AVAL":3,"DTYPE":null,"ANL01FL":"Y","TRT01A":"Placebo","TRT01AN":1,"SAFFL":"Y","ITTFL":"Y","EFFFL":"Y","COMPFL":"Y","SITEID":"701","AGE":70,"AGEGR1":"65-80","SEX":"M","RACE":"WHITE","ARMCD":"Pbo","TRTSDT":"2013-08-08","TRTEDT":"2014-02-05"},{"STUDYID":"CDISCPILOT01","USUBJID":"01-701-1440","DOMAIN":"ADQS","PARAMCD":"CIBIC","PARAM":"CIBIC+ Global Score","PARAMN":1,"AVISIT":"Week 16","AVISITN":16,"ADT":"2013-11-27","ADY":112,"AVAL":5,"DTYPE":null,"ANL01FL":"Y","TRT01A":"Placebo","TRT01AN":1,"SAFFL":"Y","ITTFL":"Y","EFFFL":"Y","COMPFL":"Y","SITEID":"701","AGE":70,"AGEGR1":"65-80","SEX":"M","RACE":"WHITE","ARMCD":"Pbo","TRTSDT":"2013-08-08","TRTEDT":"2014-02-05"},{"STUDYID":"CDISCPILOT01","USUBJID":"01-701-1440","DOMAIN":"ADQS","PARAMCD":"CIBIC","PARAM":"CIBIC+ Global Score","PARAMN":1,"AVISIT":"Week 20","AVISITN":20,"ADT":null,"ADY":null,"AVAL":5,"DTYPE":null,"ANL01FL":"Y","TRT01A":"Placebo","TRT01AN":1,"SAFFL":"Y","ITTFL":"Y","EFFFL":"Y","COMPFL":"Y","SITEID":"701","AGE":70,"AGEGR1":"65-80","SEX":"M","RACE":"WHITE","ARMCD":"Pbo","TRTSDT":"2013-08-08","TRTEDT":"2014-02-05"},{"STUDYID":"CDISCPILOT01","USUBJID":"01-701-1440","DOMAIN":"ADQS","PARAMCD":"CIBIC","PARAM":"CIBIC+ Global Score","PARAMN":1,"AVISIT":"Week 24","AVISITN":24,"ADT":"2014-01-22","ADY":168,"AVAL":5,"DTYPE":null,"ANL01FL":"Y","TRT01A":"Placebo","TRT01AN":1,"SAFFL":"Y","ITTFL":"Y","EFFFL":"Y","COMPFL":"Y","SITEID":"701","AGE":70,"AGEGR1":"65-80","SEX":"M","RACE":"WHITE","ARMCD":"Pbo","TRTSDT":"2013-08-08","TRTEDT":"2014-02-05"},{"STUDYID":"CDISCPILOT01","USUBJID":"01-701-1440","DOMAIN":"ADQS","PARAMCD":"CIBIC","PARAM":"CIBIC+ Global Score","PARAMN":1,"AVISIT":"Week 26","AVISITN":26,"ADT":null,"ADY":null,"AVAL":5,"DTYPE":null,"ANL01FL":"Y","TRT01A":"Placebo","TRT01AN":1,"SAFFL":"Y","ITTFL":"Y","EFFFL":"Y","COMPFL":"Y","SITEID":"701","AGE":70,"AGEGR1":"65-80","SEX":"M","RACE":"WHITE","ARMCD":"Pbo","TRTSDT":"2013-08-08","TRTEDT":"2014-02-05"},{"STUDYID":"CDISCPILOT01","USUBJID":"01-701-1442","DOMAIN":"ADQS","PARAMCD":"CIBIC","PARAM":"CIBIC+ Global Score","PARAMN":1,"AVISIT":"Week 2","AVISITN":2,"ADT":null,"ADY":null,"AVAL":null,"DTYPE":null,"ANL01FL":"Y","TRT01A":"Xanomeline Low Dose","TRT01AN":2,"SAFFL":"Y","ITTFL":"Y","EFFFL":"Y","COMPFL":"Y","SITEID":"701","AGE":57,"AGEGR1":"<65","SEX":"F","RACE":"BLACK OR AFRICAN AMERICAN","ARMCD":"Xan_Lo","TRTSDT":"2013-10-26","TRTEDT":"2014-04-26"},{"STUDYID":"CDISCPILOT01","USUBJID":"01-701-1442","DOMAIN":"ADQS","PARAMCD":"CIBIC","PARAM":"CIBIC+ Global Score","PARAMN":1,"AVISIT":"Week 4","AVISITN":4,"ADT":null,"ADY":null,"AVAL":null,"DTYPE":null,"ANL01FL":"Y","TRT01A":"Xanomeline Low Dose","TRT01AN":2,"SAFFL":"Y","ITTFL":"Y","EFFFL":"Y","COMPFL":"Y","SITEID":"701","AGE":57,"AGEGR1":"<65","SEX":"F","RACE":"BLACK OR AFRICAN AMERICAN","ARMCD":"Xan_Lo","TRTSDT":"2013-10-26","TRTEDT":"2014-04-26"},{"STUDYID":"CDISCPILOT01","USUBJID":"01-701-1442","DOMAIN":"ADQS","PARAMCD":"CIBIC","PARAM":"CIBIC+ Global Score","PARAMN":1,"AVISIT":"Week 6","AVISITN":6,"ADT":null,"ADY":null,"AVAL":null,"DTYPE":null,"ANL01FL":"Y","TRT01A":"Xanomeline Low Dose","TRT01AN":2,"SAFFL":"Y","ITTFL":"Y","EFFFL":"Y","COMPFL":"Y","SITEID":"701","AGE":57,"AGEGR1":"<65","SEX":"F","RACE":"BLACK OR AFRICAN AMERICAN","ARMCD":"Xan_Lo","TRTSDT":"2013-10-26","TRTEDT":"2014-04-26"},{"STUDYID":"CDISCPILOT01","USUBJID":"01-701-1442","DOMAIN":"ADQS","PARAMCD":"CIBIC","PARAM":"CIBIC+ Global Score","PARAMN":1,"AVISIT":"Week 8","AVISITN":8,"ADT":"2013-12-26","ADY":62,"AVAL":4,"DTYPE":null,"ANL01FL":"Y","TRT01A":"Xanomeline Low Dose","TRT01AN":2,"SAFFL":"Y","ITTFL":"Y","EFFFL":"Y","COMPFL":"Y","SITEID":"701","AGE":57,"AGEGR1":"<65","SEX":"F","RACE":"BLACK OR AFRICAN AMERICAN","ARMCD":"Xan_Lo","TRTSDT":"2013-10-26","TRTEDT":"2014-04-26"},{"STUDYID":"CDISCPILOT01","USUBJID":"01-701-1442","DOMAIN":"ADQS","PARAMCD":"CIBIC","PARAM":"CIBIC+ Global Score","PARAMN":1,"AVISIT":"Week 12","AVISITN":12,"ADT":null,"ADY":null,"AVAL":4,"DTYPE":null,"ANL01FL":"Y","TRT01A":"Xanomeline Low Dose","TRT01AN":2,"SAFFL":"Y","ITTFL":"Y","EFFFL":"Y","COMPFL":"Y","SITEID":"701","AGE":57,"AGEGR1":"<65","SEX":"F","RACE":"BLACK OR AFRICAN AMERICAN","ARMCD":"Xan_Lo","TRTSDT":"2013-10-26","TRTEDT":"2014-04-26"},{"STUDYID":"CDISCPILOT01","USUBJID":"01-701-1442","DOMAIN":"ADQS","PARAMCD":"CIBIC","PARAM":"CIBIC+ Global Score","PARAMN":1,"AVISIT":"Week 16","AVISITN":16,"ADT":"2014-02-15","ADY":113,"AVAL":4,"DTYPE":null,"ANL01FL":"Y","TRT01A":"Xanomeline Low Dose","TRT01AN":2,"SAFFL":"Y","ITTFL":"Y","EFFFL":"Y","COMPFL":"Y","SITEID":"701","AGE":57,"AGEGR1":"<65","SEX":"F","RACE":"BLACK OR AFRICAN AMERICAN","ARMCD":"Xan_Lo","TRTSDT":"2013-10-26","TRTEDT":"2014-04-26"},{"STUDYID":"CDISCPILOT01","USUBJID":"01-701-1442","DOMAIN":"ADQS","PARAMCD":"CIBIC","PARAM":"CIBIC+ Global Score","PARAMN":1,"AVISIT":"Week 20","AVISITN":20,"ADT":null,"ADY":null,"AVAL":4,"DTYPE":null,"ANL01FL":"Y","TRT01A":"Xanomeline Low Dose","TRT01AN":2,"SAFFL":"Y","ITTFL":"Y","EFFFL":"Y","COMPFL":"Y","SITEID":"701","AGE":57,"AGEGR1":"<65","SEX":"F","RACE":"BLACK OR AFRICAN AMERICAN","ARMCD":"Xan_Lo","TRTSDT":"2013-10-26","TRTEDT":"2014-04-26"},{"STUDYID":"CDISCPILOT01","USUBJID":"01-701-1442","DOMAIN":"ADQS","PARAMCD":"CIBIC","PARAM":"CIBIC+ Global Score","PARAMN":1,"AVISIT":"Week 24","AVISITN":24,"ADT":"2014-04-17","ADY":174,"AVAL":4,"DTYPE":null,"ANL01FL":"Y","TRT01A":"Xanomeline Low Dose","TRT01AN":2,"SAFFL":"Y","ITTFL":"Y","EFFFL":"Y","COMPFL":"Y","SITEID":"701","AGE":57,"AGEGR1":"<65","SEX":"F","RACE":"BLACK OR AFRICAN AMERICAN","ARMCD":"Xan_Lo","TRTSDT":"2013-10-26","TRTEDT":"2014-04-26"},{"STUDYID":"CDISCPILOT01","USUBJID":"01-701-1442","DOMAIN":"ADQS","PARAMCD":"CIBIC","PARAM":"CIBIC+ Global Score","PARAMN":1,"AVISIT":"Week 26","AVISITN":26,"ADT":null,"ADY":null,"AVAL":4,"DTYPE":null,"ANL01FL":"Y","TRT01A":"Xanomeline Low Dose","TRT01AN":2,"SAFFL":"Y","ITTFL":"Y","EFFFL":"Y","COMPFL":"Y","SITEID":"701","AGE":57,"AGEGR1":"<65","SEX":"F","RACE":"BLACK OR AFRICAN AMERICAN","ARMCD":"Xan_Lo","TRTSDT":"2013-10-26","TRTEDT":"2014-04-26"},{"STUDYID":"CDISCPILOT01","USUBJID":"01-701-1444","DOMAIN":"ADQS","PARAMCD":"CIBIC","PARAM":"CIBIC+ Global Score","PARAMN":1,"AVISIT":"Week 2","AVISITN":2,"ADT":null,"ADY":null,"AVAL":null,"DTYPE":null,"ANL01FL":"Y","TRT01A":"Xanomeline High Dose","TRT01AN":3,"SAFFL":"Y","ITTFL":"Y","EFFFL":"Y","COMPFL":"N","SITEID":"701","AGE":63,"AGEGR1":"<65","SEX":"M","RACE":"WHITE","ARMCD":"Xan_Hi","TRTSDT":"2013-01-05","TRTEDT":"2013-02-12"},{"STUDYID":"CDISCPILOT01","USUBJID":"01-701-1444","DOMAIN":"ADQS","PARAMCD":"CIBIC","PARAM":"CIBIC+ Global Score","PARAMN":1,"AVISIT":"Week 4","AVISITN":4,"ADT":null,"ADY":null,"AVAL":null,"DTYPE":null,"ANL01FL":"Y","TRT01A":"Xanomeline High Dose","TRT01AN":3,"SAFFL":"Y","ITTFL":"Y","EFFFL":"Y","COMPFL":"N","SITEID":"701","AGE":63,"AGEGR1":"<65","SEX":"M","RACE":"WHITE","ARMCD":"Xan_Hi","TRTSDT":"2013-01-05","TRTEDT":"2013-02-12"},{"STUDYID":"CDISCPILOT01","USUBJID":"01-701-1444","DOMAIN":"ADQS","PARAMCD":"CIBIC","PARAM":"CIBIC+ Global Score","PARAMN":1,"AVISIT":"Week 6","AVISITN":6,"ADT":"2013-02-13","ADY":40,"AVAL":5,"DTYPE":null,"ANL01FL":"Y","TRT01A":"Xanomeline High Dose","TRT01AN":3,"SAFFL":"Y","ITTFL":"Y","EFFFL":"Y","COMPFL":"N","SITEID":"701","AGE":63,"AGEGR1":"<65","SEX":"M","RACE":"WHITE","ARMCD":"Xan_Hi","TRTSDT":"2013-01-05","TRTEDT":"2013-02-12"},{"STUDYID":"CDISCPILOT01","USUBJID":"01-701-1444","DOMAIN":"ADQS","PARAMCD":"CIBIC","PARAM":"CIBIC+ Global Score","PARAMN":1,"AVISIT":"Week 8","AVISITN":8,"ADT":null,"ADY":null,"AVAL":5,"DTYPE":"LOCF","ANL01FL":"Y","TRT01A":"Xanomeline High Dose","TRT01AN":3,"SAFFL":"Y","ITTFL":"Y","EFFFL":"Y","COMPFL":"N","SITEID":"701","AGE":63,"AGEGR1":"<65","SEX":"M","RACE":"WHITE","ARMCD":"Xan_Hi","TRTSDT":"2013-01-05","TRTEDT":"2013-02-12"},{"STUDYID":"CDISCPILOT01","USUBJID":"01-701-1444","DOMAIN":"ADQS","PARAMCD":"CIBIC","PARAM":"CIBIC+ Global Score","PARAMN":1,"AVISIT":"Week 12","AVISITN":12,"ADT":null,"ADY":null,"AVAL":5,"DTYPE":null,"ANL01FL":"Y","TRT01A":"Xanomeline High Dose","TRT01AN":3,"SAFFL":"Y","ITTFL":"Y","EFFFL":"Y","COMPFL":"N","SITEID":"701","AGE":63,"AGEGR1":"<65","SEX":"M","RACE":"WHITE","ARMCD":"Xan_Hi","TRTSDT":"2013-01-05","TRTEDT":"2013-02-12"},{"STUDYID":"CDISCPILOT01","USUBJID":"01-701-1444","DOMAIN":"ADQS","PARAMCD":"CIBIC","PARAM":"CIBIC+ Global Score","PARAMN":1,"AVISIT":"Week 16","AVISITN":16,"ADT":null,"ADY":null,"AVAL":5,"DTYPE":"LOCF","ANL01FL":"Y","TRT01A":"Xanomeline High Dose","TRT01AN":3,"SAFFL":"Y","ITTFL":"Y","EFFFL":"Y","COMPFL":"N","SITEID":"701","AGE":63,"AGEGR1":"<65","SEX":"M","RACE":"WHITE","ARMCD":"Xan_Hi","TRTSDT":"2013-01-05","TRTEDT":"2013-02-12"},{"STUDYID":"CDISCPILOT01","USUBJID":"01-701-1444","DOMAIN":"ADQS","PARAMCD":"CIBIC","PARAM":"CIBIC+ Global Score","PARAMN":1,"AVISIT":"Week 20","AVISITN":20,"ADT":null,"ADY":null,"AVAL":5,"DTYPE":null,"ANL01FL":"Y","TRT01A":"Xanomeline High Dose","TRT01AN":3,"SAFFL":"Y","ITTFL":"Y","EFFFL":"Y","COMPFL":"N","SITEID":"701","AGE":63,"AGEGR1":"<65","SEX":"M","RACE":"WHITE","ARMCD":"Xan_Hi","TRTSDT":"2013-01-05","TRTEDT":"2013-02-12"},{"STUDYID":"CDISCPILOT01","USUBJID":"01-701-1444","DOMAIN":"ADQS","PARAMCD":"CIBIC","PARAM":"CIBIC+ Global Score","PARAMN":1,"AVISIT":"Week 24","AVISITN":24,"ADT":"2013-06-20","ADY":167,"AVAL":5,"DTYPE":null,"ANL01FL":"Y","TRT01A":"Xanomeline High Dose","TRT01AN":3,"SAFFL":"Y","ITTFL":"Y","EFFFL":"Y","COMPFL":"N","SITEID":"701","AGE":63,"AGEGR1":"<65","SEX":"M","RACE":"WHITE","ARMCD":"Xan_Hi","TRTSDT":"2013-01-05","TRTEDT":"2013-02-12"},{"STUDYID":"CDISCPILOT01","USUBJID":"01-701-1444","DOMAIN":"ADQS","PARAMCD":"CIBIC","PARAM":"CIBIC+ Global Score","PARAMN":1,"AVISIT":"Week 26","AVISITN":26,"ADT":null,"ADY":null,"AVAL":5,"DTYPE":null,"ANL01FL":"Y","TRT01A":"Xanomeline High Dose","TRT01AN":3,"SAFFL":"Y","ITTFL":"Y","EFFFL":"Y","COMPFL":"N","SITEID":"701","AGE":63,"AGEGR1":"<65","SEX":"M","RACE":"WHITE","ARMCD":"Xan_Hi","TRTSDT":"2013-01-05","TRTEDT":"2013-02-12"},{"STUDYID":"CDISCPILOT01","USUBJID":"01-702-1082","DOMAIN":"ADQS","PARAMCD":"CIBIC","PARAM":"CIBIC+ Global Score","PARAMN":1,"AVISIT":"Week 2","AVISITN":2,"ADT":null,"ADY":null,"AVAL":null,"DTYPE":null,"ANL01FL":"Y","TRT01A":"Xanomeline Low Dose","TRT01AN":2,"SAFFL":"Y","ITTFL":"Y","EFFFL":"Y","COMPFL":"N","SITEID":"702","AGE":84,"AGEGR1":">80","SEX":"F","RACE":"WHITE","ARMCD":"Xan_Lo","TRTSDT":"2013-07-26","TRTEDT":"2013-10-13"},{"STUDYID":"CDISCPILOT01","USUBJID":"01-702-1082","DOMAIN":"ADQS","PARAMCD":"CIBIC","PARAM":"CIBIC+ Global Score","PARAMN":1,"AVISIT":"Week 4","AVISITN":4,"ADT":null,"ADY":null,"AVAL":null,"DTYPE":null,"ANL01FL":"Y","TRT01A":"Xanomeline Low Dose","TRT01AN":2,"SAFFL":"Y","ITTFL":"Y","EFFFL":"Y","COMPFL":"N","SITEID":"702","AGE":84,"AGEGR1":">80","SEX":"F","RACE":"WHITE","ARMCD":"Xan_Lo","TRTSDT":"2013-07-26","TRTEDT":"2013-10-13"},{"STUDYID":"CDISCPILOT01","USUBJID":"01-702-1082","DOMAIN":"ADQS","PARAMCD":"CIBIC","PARAM":"CIBIC+ Global Score","PARAMN":1,"AVISIT":"Week 6","AVISITN":6,"ADT":null,"ADY":null,"AVAL":null,"DTYPE":null,"ANL01FL":"Y","TRT01A":"Xanomeline Low Dose","TRT01AN":2,"SAFFL":"Y","ITTFL":"Y","EFFFL":"Y","COMPFL":"N","SITEID":"702","AGE":84,"AGEGR1":">80","SEX":"F","RACE":"WHITE","ARMCD":"Xan_Lo","TRTSDT":"2013-07-26","TRTEDT":"2013-10-13"},{"STUDYID":"CDISCPILOT01","USUBJID":"01-702-1082","DOMAIN":"ADQS","PARAMCD":"CIBIC","PARAM":"CIBIC+ Global Score","PARAMN":1,"AVISIT":"Week 8","AVISITN":8,"ADT":"2013-09-28","ADY":65,"AVAL":4,"DTYPE":null,"ANL01FL":"Y","TRT01A":"Xanomeline Low Dose","TRT01AN":2,"SAFFL":"Y","ITTFL":"Y","EFFFL":"Y","COMPFL":"N","SITEID":"702","AGE":84,"AGEGR1":">80","SEX":"F","RACE":"WHITE","ARMCD":"Xan_Lo","TRTSDT":"2013-07-26","TRTEDT":"2013-10-13"},{"STUDYID":"CDISCPILOT01","USUBJID":"01-702-1082","DOMAIN":"ADQS","PARAMCD":"CIBIC","PARAM":"CIBIC+ Global Score","PARAMN":1,"AVISIT":"Week 12","AVISITN":12,"ADT":"2013-11-17","ADY":115,"AVAL":4,"DTYPE":null,"ANL01FL":"Y","TRT01A":"Xanomeline Low Dose","TRT01AN":2,"SAFFL":"Y","ITTFL":"Y","EFFFL":"Y","COMPFL":"N","SITEID":"702","AGE":84,"AGEGR1":">80","SEX":"F","RACE":"WHITE","ARMCD":"Xan_Lo","TRTSDT":"2013-07-26","TRTEDT":"2013-10-13"},{"STUDYID":"CDISCPILOT01","USUBJID":"01-702-1082","DOMAIN":"ADQS","PARAMCD":"CIBIC","PARAM":"CIBIC+ Global Score","PARAMN":1,"AVISIT":"Week 16","AVISITN":16,"ADT":null,"ADY":null,"AVAL":4,"DTYPE":"LOCF","ANL01FL":"Y","TRT01A":"Xanomeline Low Dose","TRT01AN":2,"SAFFL":"Y","ITTFL":"Y","EFFFL":"Y","COMPFL":"N","SITEID":"702","AGE":84,"AGEGR1":">80","SEX":"F","RACE":"WHITE","ARMCD":"Xan_Lo","TRTSDT":"2013-07-26","TRTEDT":"2013-10-13"},{"STUDYID":"CDISCPILOT01","USUBJID":"01-702-1082","DOMAIN":"ADQS","PARAMCD":"CIBIC","PARAM":"CIBIC+ Global Score","PARAMN":1,"AVISIT":"Week 20","AVISITN":20,"ADT":null,"ADY":null,"AVAL":4,"DTYPE":null,"ANL01FL":"Y","TRT01A":"Xanomeline Low Dose","TRT01AN":2,"SAFFL":"Y","ITTFL":"Y","EFFFL":"Y","COMPFL":"N","SITEID":"702","AGE":84,"AGEGR1":">80","SEX":"F","RACE":"WHITE","ARMCD":"Xan_Lo","TRTSDT":"2013-07-26","TRTEDT":"2013-10-13"},{"STUDYID":"CDISCPILOT01","USUBJID":"01-702-1082","DOMAIN":"ADQS","PARAMCD":"CIBIC","PARAM":"CIBIC+ Global Score","PARAMN":1,"AVISIT":"Week 24","AVISITN":24,"ADT":null,"ADY":null,"AVAL":4,"DTYPE":"LOCF","ANL01FL":"Y","TRT01A":"Xanomeline Low Dose","TRT01AN":2,"SAFFL":"Y","ITTFL":"Y","EFFFL":"Y","COMPFL":"N","SITEID":"702","AGE":84,"AGEGR1":">80","SEX":"F","RACE":"WHITE","ARMCD":"Xan_Lo","TRTSDT":"2013-07-26","TRTEDT":"2013-10-13"},{"STUDYID":"CDISCPILOT01","USUBJID":"01-702-1082","DOMAIN":"ADQS","PARAMCD":"CIBIC","PARAM":"CIBIC+ Global Score","PARAMN":1,"AVISIT":"Week 26","AVISITN":26,"ADT":null,"ADY":null,"AVAL":4,"DTYPE":null,"ANL01FL":"Y","TRT01A":"Xanomeline Low Dose","TRT01AN":2,"SAFFL":"Y","ITTFL":"Y","EFFFL":"Y","COMPFL":"N","SITEID":"702","AGE":84,"AGEGR1":">80","SEX":"F","RACE":"WHITE","ARMCD":"Xan_Lo","TRTSDT":"2013-07-26","TRTEDT":"2013-10-13"},{"STUDYID":"CDISCPILOT01","USUBJID":"01-703-1042","DOMAIN":"ADQS","PARAMCD":"CIBIC","PARAM":"CIBIC+ Global Score","PARAMN":1,"AVISIT":"Week 2","AVISITN":2,"ADT":null,"ADY":null,"AVAL":null,"DTYPE":null,"ANL01FL":"Y","TRT01A":"Placebo","TRT01AN":1,"SAFFL":"Y","ITTFL":"Y","EFFFL":"Y","COMPFL":"Y","SITEID":"703","AGE":64,"AGEGR1":"<65","SEX":"M","RACE":"WHITE","ARMCD":"Pbo","TRTSDT":"2013-03-02","TRTEDT":"2013-08-31"},{"STUDYID":"CDISCPILOT01","USUBJID":"01-703-1042","DOMAIN":"ADQS","PARAMCD":"CIBIC","PARAM":"CIBIC+ Global Score","PARAMN":1,"AVISIT":"Week 4","AVISITN":4,"ADT":null,"ADY":null,"AVAL":null,"DTYPE":null,"ANL01FL":"Y","TRT01A":"Placebo","TRT01AN":1,"SAFFL":"Y","ITTFL":"Y","EFFFL":"Y","COMPFL":"Y","SITEID":"703","AGE":64,"AGEGR1":"<65","SEX":"M","RACE":"WHITE","ARMCD":"Pbo","TRTSDT":"2013-03-02","TRTEDT":"2013-08-31"},{"STUDYID":"CDISCPILOT01","USUBJID":"01-703-1042","DOMAIN":"ADQS","PARAMCD":"CIBIC","PARAM":"CIBIC+ Global Score","PARAMN":1,"AVISIT":"Week 6","AVISITN":6,"ADT":null,"ADY":null,"AVAL":null,"DTYPE":null,"ANL01FL":"Y","TRT01A":"Placebo","TRT01AN":1,"SAFFL":"Y","ITTFL":"Y","EFFFL":"Y","COMPFL":"Y","SITEID":"703","AGE":64,"AGEGR1":"<65","SEX":"M","RACE":"WHITE","ARMCD":"Pbo","TRTSDT":"2013-03-02","TRTEDT":"2013-08-31"},{"STUDYID":"CDISCPILOT01","USUBJID":"01-703-1042","DOMAIN":"ADQS","PARAMCD":"CIBIC","PARAM":"CIBIC+ Global Score","PARAMN":1,"AVISIT":"Week 8","AVISITN":8,"ADT":null,"ADY":null,"AVAL":null,"DTYPE":null,"ANL01FL":"Y","TRT01A":"Placebo","TRT01AN":1,"SAFFL":"Y","ITTFL":"Y","EFFFL":"Y","COMPFL":"Y","SITEID":"703","AGE":64,"AGEGR1":"<65","SEX":"M","RACE":"WHITE","ARMCD":"Pbo","TRTSDT":"2013-03-02","TRTEDT":"2013-08-31"},{"STUDYID":"CDISCPILOT01","USUBJID":"01-703-1042","DOMAIN":"ADQS","PARAMCD":"CIBIC","PARAM":"CIBIC+ Global Score","PARAMN":1,"AVISIT":"Week 12","AVISITN":12,"ADT":null,"ADY":null,"AVAL":null,"DTYPE":null,"ANL01FL":"Y","TRT01A":"Placebo","TRT01AN":1,"SAFFL":"Y","ITTFL":"Y","EFFFL":"Y","COMPFL":"Y","SITEID":"703","AGE":64,"AGEGR1":"<65","SEX":"M","RACE":"WHITE","ARMCD":"Pbo","TRTSDT":"2013-03-02","TRTEDT":"2013-08-31"},{"STUDYID":"CDISCPILOT01","USUBJID":"01-703-1042","DOMAIN":"ADQS","PARAMCD":"CIBIC","PARAM":"CIBIC+ Global Score","PARAMN":1,"AVISIT":"Week 16","AVISITN":16,"ADT":"2013-06-22","ADY":113,"AVAL":4,"DTYPE":null,"ANL01FL":"Y","TRT01A":"Placebo","TRT01AN":1,"SAFFL":"Y","ITTFL":"Y","EFFFL":"Y","COMPFL":"Y","SITEID":"703","AGE":64,"AGEGR1":"<65","SEX":"M","RACE":"WHITE","ARMCD":"Pbo","TRTSDT":"2013-03-02","TRTEDT":"2013-08-31"},{"STUDYID":"CDISCPILOT01","USUBJID":"01-703-1042","DOMAIN":"ADQS","PARAMCD":"CIBIC","PARAM":"CIBIC+ Global Score","PARAMN":1,"AVISIT":"Week 20","AVISITN":20,"ADT":null,"ADY":null,"AVAL":4,"DTYPE":null,"ANL01FL":"Y","TRT01A":"Placebo","TRT01AN":1,"SAFFL":"Y","ITTFL":"Y","EFFFL":"Y","COMPFL":"Y","SITEID":"703","AGE":64,"AGEGR1":"<65","SEX":"M","RACE":"WHITE","ARMCD":"Pbo","TRTSDT":"2013-03-02","TRTEDT":"2013-08-31"},{"STUDYID":"CDISCPILOT01","USUBJID":"01-703-1042","DOMAIN":"ADQS","PARAMCD":"CIBIC","PARAM":"CIBIC+ Global Score","PARAMN":1,"AVISIT":"Week 24","AVISITN":24,"ADT":"2013-08-09","ADY":161,"AVAL":4,"DTYPE":null,"ANL01FL":"Y","TRT01A":"Placebo","TRT01AN":1,"SAFFL":"Y","ITTFL":"Y","EFFFL":"Y","COMPFL":"Y","SITEID":"703","AGE":64,"AGEGR1":"<65","SEX":"M","RACE":"WHITE","ARMCD":"Pbo","TRTSDT":"2013-03-02","TRTEDT":"2013-08-31"},{"STUDYID":"CDISCPILOT01","USUBJID":"01-703-1042","DOMAIN":"ADQS","PARAMCD":"CIBIC","PARAM":"CIBIC+ Global Score","PARAMN":1,"AVISIT":"Week 26","AVISITN":26,"ADT":null,"ADY":null,"AVAL":4,"DTYPE":null,"ANL01FL":"Y","TRT01A":"Placebo","TRT01AN":1,"SAFFL":"Y","ITTFL":"Y","EFFFL":"Y","COMPFL":"Y","SITEID":"703","AGE":64,"AGEGR1":"<65","SEX":"M","RACE":"WHITE","ARMCD":"Pbo","TRTSDT":"2013-03-02","TRTEDT":"2013-08-31"},{"STUDYID":"CDISCPILOT01","USUBJID":"01-703-1076","DOMAIN":"ADQS","PARAMCD":"CIBIC","PARAM":"CIBIC+ Global Score","PARAMN":1,"AVISIT":"Week 2","AVISITN":2,"ADT":null,"ADY":null,"AVAL":null,"DTYPE":null,"ANL01FL":"Y","TRT01A":"Xanomeline High Dose","TRT01AN":3,"SAFFL":"Y","ITTFL":"Y","EFFFL":"Y","COMPFL":"N","SITEID":"703","AGE":69,"AGEGR1":"65-80","SEX":"M","RACE":"WHITE","ARMCD":"Xan_Hi","TRTSDT":"2013-10-25","TRTEDT":"2013-12-24"},{"STUDYID":"CDISCPILOT01","USUBJID":"01-703-1076","DOMAIN":"ADQS","PARAMCD":"CIBIC","PARAM":"CIBIC+ Global Score","PARAMN":1,"AVISIT":"Week 4","AVISITN":4,"ADT":null,"ADY":null,"AVAL":null,"DTYPE":null,"ANL01FL":"Y","TRT01A":"Xanomeline High Dose","TRT01AN":3,"SAFFL":"Y","ITTFL":"Y","EFFFL":"Y","COMPFL":"N","SITEID":"703","AGE":69,"AGEGR1":"65-80","SEX":"M","RACE":"WHITE","ARMCD":"Xan_Hi","TRTSDT":"2013-10-25","TRTEDT":"2013-12-24"},{"STUDYID":"CDISCPILOT01","USUBJID":"01-703-1076","DOMAIN":"ADQS","PARAMCD":"CIBIC","PARAM":"CIBIC+ Global Score","PARAMN":1,"AVISIT":"Week 6","AVISITN":6,"ADT":null,"ADY":null,"AVAL":null,"DTYPE":null,"ANL01FL":"Y","TRT01A":"Xanomeline High Dose","TRT01AN":3,"SAFFL":"Y","ITTFL":"Y","EFFFL":"Y","COMPFL":"N","SITEID":"703","AGE":69,"AGEGR1":"65-80","SEX":"M","RACE":"WHITE","ARMCD":"Xan_Hi","TRTSDT":"2013-10-25","TRTEDT":"2013-12-24"},{"STUDYID":"CDISCPILOT01","USUBJID":"01-703-1076","DOMAIN":"ADQS","PARAMCD":"CIBIC","PARAM":"CIBIC+ Global Score","PARAMN":1,"AVISIT":"Week 8","AVISITN":8,"ADT":"2013-12-17","ADY":54,"AVAL":3,"DTYPE":null,"ANL01FL":"Y","TRT01A":"Xanomeline High Dose","TRT01AN":3,"SAFFL":"Y","ITTFL":"Y","EFFFL":"Y","COMPFL":"N","SITEID":"703","AGE":69,"AGEGR1":"65-80","SEX":"M","RACE":"WHITE","ARMCD":"Xan_Hi","TRTSDT":"2013-10-25","TRTEDT":"2013-12-24"},{"STUDYID":"CDISCPILOT01","USUBJID":"01-703-1076","DOMAIN":"ADQS","PARAMCD":"CIBIC","PARAM":"CIBIC+ Global Score","PARAMN":1,"AVISIT":"Week 12","AVISITN":12,"ADT":"2013-12-24","ADY":61,"AVAL":3,"DTYPE":null,"ANL01FL":"Y","TRT01A":"Xanomeline High Dose","TRT01AN":3,"SAFFL":"Y","ITTFL":"Y","EFFFL":"Y","COMPFL":"N","SITEID":"703","AGE":69,"AGEGR1":"65-80","SEX":"M","RACE":"WHITE","ARMCD":"Xan_Hi","TRTSDT":"2013-10-25","TRTEDT":"2013-12-24"},{"STUDYID":"CDISCPILOT01","USUBJID":"01-703-1076","DOMAIN":"ADQS","PARAMCD":"CIBIC","PARAM":"CIBIC+ Global Score","PARAMN":1,"AVISIT":"Week 16","AVISITN":16,"ADT":null,"ADY":null,"AVAL":3,"DTYPE":"LOCF","ANL01FL":"Y","TRT01A":"Xanomeline High Dose","TRT01AN":3,"SAFFL":"Y","ITTFL":"Y","EFFFL":"Y","COMPFL":"N","SITEID":"703","AGE":69,"AGEGR1":"65-80","SEX":"M","RACE":"WHITE","ARMCD":"Xan_Hi","TRTSDT":"2013-10-25","TRTEDT":"2013-12-24"},{"STUDYID":"CDISCPILOT01","USUBJID":"01-703-1076","DOMAIN":"ADQS","PARAMCD":"CIBIC","PARAM":"CIBIC+ Global Score","PARAMN":1,"AVISIT":"Week 20","AVISITN":20,"ADT":null,"ADY":null,"AVAL":3,"DTYPE":null,"ANL01FL":"Y","TRT01A":"Xanomeline High Dose","TRT01AN":3,"SAFFL":"Y","ITTFL":"Y","EFFFL":"Y","COMPFL":"N","SITEID":"703","AGE":69,"AGEGR1":"65-80","SEX":"M","RACE":"WHITE","ARMCD":"Xan_Hi","TRTSDT":"2013-10-25","TRTEDT":"2013-12-24"},{"STUDYID":"CDISCPILOT01","USUBJID":"01-703-1076","DOMAIN":"ADQS","PARAMCD":"CIBIC","PARAM":"CIBIC+ Global Score","PARAMN":1,"AVISIT":"Week 24","AVISITN":24,"ADT":null,"ADY":null,"AVAL":3,"DTYPE":"LOCF","ANL01FL":"Y","TRT01A":"Xanomeline High Dose","TRT01AN":3,"SAFFL":"Y","ITTFL":"Y","EFFFL":"Y","COMPFL":"N","SITEID":"703","AGE":69,"AGEGR1":"65-80","SEX":"M","RACE":"WHITE","ARMCD":"Xan_Hi","TRTSDT":"2013-10-25","TRTEDT":"2013-12-24"},{"STUDYID":"CDISCPILOT01","USUBJID":"01-703-1076","DOMAIN":"ADQS","PARAMCD":"CIBIC","PARAM":"CIBIC+ Global Score","PARAMN":1,"AVISIT":"Week 26","AVISITN":26,"ADT":null,"ADY":null,"AVAL":3,"DTYPE":null,"ANL01FL":"Y","TRT01A":"Xanomeline High Dose","TRT01AN":3,"SAFFL":"Y","ITTFL":"Y","EFFFL":"Y","COMPFL":"N","SITEID":"703","AGE":69,"AGEGR1":"65-80","SEX":"M","RACE":"WHITE","ARMCD":"Xan_Hi","TRTSDT":"2013-10-25","TRTEDT":"2013-12-24"},{"STUDYID":"CDISCPILOT01","USUBJID":"01-703-1086","DOMAIN":"ADQS","PARAMCD":"CIBIC","PARAM":"CIBIC+ Global Score","PARAMN":1,"AVISIT":"Week 2","AVISITN":2,"ADT":null,"ADY":null,"AVAL":null,"DTYPE":null,"ANL01FL":"Y","TRT01A":"Xanomeline Low Dose","TRT01AN":2,"SAFFL":"Y","ITTFL":"Y","EFFFL":"Y","COMPFL":"N","SITEID":"703","AGE":71,"AGEGR1":"65-80","SEX":"M","RACE":"WHITE","ARMCD":"Xan_Lo","TRTSDT":"2012-09-02","TRTEDT":"2012-12-04"},{"STUDYID":"CDISCPILOT01","USUBJID":"01-703-1086","DOMAIN":"ADQS","PARAMCD":"CIBIC","PARAM":"CIBIC+ Global Score","PARAMN":1,"AVISIT":"Week 4","AVISITN":4,"ADT":null,"ADY":null,"AVAL":null,"DTYPE":null,"ANL01FL":"Y","TRT01A":"Xanomeline Low Dose","TRT01AN":2,"SAFFL":"Y","ITTFL":"Y","EFFFL":"Y","COMPFL":"N","SITEID":"703","AGE":71,"AGEGR1":"65-80","SEX":"M","RACE":"WHITE","ARMCD":"Xan_Lo","TRTSDT":"2012-09-02","TRTEDT":"2012-12-04"},{"STUDYID":"CDISCPILOT01","USUBJID":"01-703-1086","DOMAIN":"ADQS","PARAMCD":"CIBIC","PARAM":"CIBIC+ Global Score","PARAMN":1,"AVISIT":"Week 6","AVISITN":6,"ADT":null,"ADY":null,"AVAL":null,"DTYPE":null,"ANL01FL":"Y","TRT01A":"Xanomeline Low Dose","TRT01AN":2,"SAFFL":"Y","ITTFL":"Y","EFFFL":"Y","COMPFL":"N","SITEID":"703","AGE":71,"AGEGR1":"65-80","SEX":"M","RACE":"WHITE","ARMCD":"Xan_Lo","TRTSDT":"2012-09-02","TRTEDT":"2012-12-04"},{"STUDYID":"CDISCPILOT01","USUBJID":"01-703-1086","DOMAIN":"ADQS","PARAMCD":"CIBIC","PARAM":"CIBIC+ Global Score","PARAMN":1,"AVISIT":"Week 8","AVISITN":8,"ADT":"2012-10-27","ADY":56,"AVAL":3,"DTYPE":null,"ANL01FL":"Y","TRT01A":"Xanomeline Low Dose","TRT01AN":2,"SAFFL":"Y","ITTFL":"Y","EFFFL":"Y","COMPFL":"N","SITEID":"703","AGE":71,"AGEGR1":"65-80","SEX":"M","RACE":"WHITE","ARMCD":"Xan_Lo","TRTSDT":"2012-09-02","TRTEDT":"2012-12-04"},{"STUDYID":"CDISCPILOT01","USUBJID":"01-703-1086","DOMAIN":"ADQS","PARAMCD":"CIBIC","PARAM":"CIBIC+ Global Score","PARAMN":1,"AVISIT":"Week 12","AVISITN":12,"ADT":null,"ADY":null,"AVAL":3,"DTYPE":null,"ANL01FL":"Y","TRT01A":"Xanomeline Low Dose","TRT01AN":2,"SAFFL":"Y","ITTFL":"Y","EFFFL":"Y","COMPFL":"N","SITEID":"703","AGE":71,"AGEGR1":"65-80","SEX":"M","RACE":"WHITE","ARMCD":"Xan_Lo","TRTSDT":"2012-09-02","TRTEDT":"2012-12-04"},{"STUDYID":"CDISCPILOT01","USUBJID":"01-703-1086","DOMAIN":"ADQS","PARAMCD":"CIBIC","PARAM":"CIBIC+ Global Score","PARAMN":1,"AVISIT":"Week 16","AVISITN":16,"ADT":"2012-12-24","ADY":114,"AVAL":3,"DTYPE":null,"ANL01FL":"Y","TRT01A":"Xanomeline Low Dose","TRT01AN":2,"SAFFL":"Y","ITTFL":"Y","EFFFL":"Y","COMPFL":"N","SITEID":"703","AGE":71,"AGEGR1":"65-80","SEX":"M","RACE":"WHITE","ARMCD":"Xan_Lo","TRTSDT":"2012-09-02","TRTEDT":"2012-12-04"},{"STUDYID":"CDISCPILOT01","USUBJID":"01-703-1086","DOMAIN":"ADQS","PARAMCD":"CIBIC","PARAM":"CIBIC+ Global Score","PARAMN":1,"AVISIT":"Week 20","AVISITN":20,"ADT":null,"ADY":null,"AVAL":3,"DTYPE":null,"ANL01FL":"Y","TRT01A":"Xanomeline Low Dose","TRT01AN":2,"SAFFL":"Y","ITTFL":"Y","EFFFL":"Y","COMPFL":"N","SITEID":"703","AGE":71,"AGEGR1":"65-80","SEX":"M","RACE":"WHITE","ARMCD":"Xan_Lo","TRTSDT":"2012-09-02","TRTEDT":"2012-12-04"},{"STUDYID":"CDISCPILOT01","USUBJID":"01-703-1086","DOMAIN":"ADQS","PARAMCD":"CIBIC","PARAM":"CIBIC+ Global Score","PARAMN":1,"AVISIT":"Week 24","AVISITN":24,"ADT":"2013-03-26","ADY":206,"AVAL":3,"DTYPE":null,"ANL01FL":"Y","TRT01A":"Xanomeline Low Dose","TRT01AN":2,"SAFFL":"Y","ITTFL":"Y","EFFFL":"Y","COMPFL":"N","SITEID":"703","AGE":71,"AGEGR1":"65-80","SEX":"M","RACE":"WHITE","ARMCD":"Xan_Lo","TRTSDT":"2012-09-02","TRTEDT":"2012-12-04"},{"STUDYID":"CDISCPILOT01","USUBJID":"01-703-1086","DOMAIN":"ADQS","PARAMCD":"CIBIC","PARAM":"CIBIC+ Global Score","PARAMN":1,"AVISIT":"Week 26","AVISITN":26,"ADT":null,"ADY":null,"AVAL":3,"DTYPE":null,"ANL01FL":"Y","TRT01A":"Xanomeline Low Dose","TRT01AN":2,"SAFFL":"Y","ITTFL":"Y","EFFFL":"Y","COMPFL":"N","SITEID":"703","AGE":71,"AGEGR1":"65-80","SEX":"M","RACE":"WHITE","ARMCD":"Xan_Lo","TRTSDT":"2012-09-02","TRTEDT":"2012-12-04"},{"STUDYID":"CDISCPILOT01","USUBJID":"01-703-1100","DOMAIN":"ADQS","PARAMCD":"CIBIC","PARAM":"CIBIC+ Global Score","PARAMN":1,"AVISIT":"Week 2","AVISITN":2,"ADT":null,"ADY":null,"AVAL":null,"DTYPE":null,"ANL01FL":"Y","TRT01A":"Placebo","TRT01AN":1,"SAFFL":"Y","ITTFL":"Y","EFFFL":"Y","COMPFL":"Y","SITEID":"703","AGE":84,"AGEGR1":">80","SEX":"F","RACE":"WHITE","ARMCD":"Pbo","TRTSDT":"2013-03-13","TRTEDT":"2013-09-14"},{"STUDYID":"CDISCPILOT01","USUBJID":"01-703-1100","DOMAIN":"ADQS","PARAMCD":"CIBIC","PARAM":"CIBIC+ Global Score","PARAMN":1,"AVISIT":"Week 4","AVISITN":4,"ADT":null,"ADY":null,"AVAL":null,"DTYPE":null,"ANL01FL":"Y","TRT01A":"Placebo","TRT01AN":1,"SAFFL":"Y","ITTFL":"Y","EFFFL":"Y","COMPFL":"Y","SITEID":"703","AGE":84,"AGEGR1":">80","SEX":"F","RACE":"WHITE","ARMCD":"Pbo","TRTSDT":"2013-03-13","TRTEDT":"2013-09-14"},{"STUDYID":"CDISCPILOT01","USUBJID":"01-703-1100","DOMAIN":"ADQS","PARAMCD":"CIBIC","PARAM":"CIBIC+ Global Score","PARAMN":1,"AVISIT":"Week 6","AVISITN":6,"ADT":null,"ADY":null,"AVAL":null,"DTYPE":null,"ANL01FL":"Y","TRT01A":"Placebo","TRT01AN":1,"SAFFL":"Y","ITTFL":"Y","EFFFL":"Y","COMPFL":"Y","SITEID":"703","AGE":84,"AGEGR1":">80","SEX":"F","RACE":"WHITE","ARMCD":"Pbo","TRTSDT":"2013-03-13","TRTEDT":"2013-09-14"},{"STUDYID":"CDISCPILOT01","USUBJID":"01-703-1100","DOMAIN":"ADQS","PARAMCD":"CIBIC","PARAM":"CIBIC+ Global Score","PARAMN":1,"AVISIT":"Week 8","AVISITN":8,"ADT":"2013-05-08","ADY":57,"AVAL":4,"DTYPE":null,"ANL01FL":"Y","TRT01A":"Placebo","TRT01AN":1,"SAFFL":"Y","ITTFL":"Y","EFFFL":"Y","COMPFL":"Y","SITEID":"703","AGE":84,"AGEGR1":">80","SEX":"F","RACE":"WHITE","ARMCD":"Pbo","TRTSDT":"2013-03-13","TRTEDT":"2013-09-14"},{"STUDYID":"CDISCPILOT01","USUBJID":"01-703-1100","DOMAIN":"ADQS","PARAMCD":"CIBIC","PARAM":"CIBIC+ Global Score","PARAMN":1,"AVISIT":"Week 12","AVISITN":12,"ADT":null,"ADY":null,"AVAL":4,"DTYPE":null,"ANL01FL":"Y","TRT01A":"Placebo","TRT01AN":1,"SAFFL":"Y","ITTFL":"Y","EFFFL":"Y","COMPFL":"Y","SITEID":"703","AGE":84,"AGEGR1":">80","SEX":"F","RACE":"WHITE","ARMCD":"Pbo","TRTSDT":"2013-03-13","TRTEDT":"2013-09-14"},{"STUDYID":"CDISCPILOT01","USUBJID":"01-703-1100","DOMAIN":"ADQS","PARAMCD":"CIBIC","PARAM":"CIBIC+ Global Score","PARAMN":1,"AVISIT":"Week 16","AVISITN":16,"ADT":"2013-07-03","ADY":113,"AVAL":4,"DTYPE":null,"ANL01FL":"Y","TRT01A":"Placebo","TRT01AN":1,"SAFFL":"Y","ITTFL":"Y","EFFFL":"Y","COMPFL":"Y","SITEID":"703","AGE":84,"AGEGR1":">80","SEX":"F","RACE":"WHITE","ARMCD":"Pbo","TRTSDT":"2013-03-13","TRTEDT":"2013-09-14"},{"STUDYID":"CDISCPILOT01","USUBJID":"01-703-1100","DOMAIN":"ADQS","PARAMCD":"CIBIC","PARAM":"CIBIC+ Global Score","PARAMN":1,"AVISIT":"Week 20","AVISITN":20,"ADT":null,"ADY":null,"AVAL":4,"DTYPE":null,"ANL01FL":"Y","TRT01A":"Placebo","TRT01AN":1,"SAFFL":"Y","ITTFL":"Y","EFFFL":"Y","COMPFL":"Y","SITEID":"703","AGE":84,"AGEGR1":">80","SEX":"F","RACE":"WHITE","ARMCD":"Pbo","TRTSDT":"2013-03-13","TRTEDT":"2013-09-14"},{"STUDYID":"CDISCPILOT01","USUBJID":"01-703-1100","DOMAIN":"ADQS","PARAMCD":"CIBIC","PARAM":"CIBIC+ Global Score","PARAMN":1,"AVISIT":"Week 24","AVISITN":24,"ADT":"2013-08-28","ADY":169,"AVAL":5,"DTYPE":null,"ANL01FL":"Y","TRT01A":"Placebo","TRT01AN":1,"SAFFL":"Y","ITTFL":"Y","EFFFL":"Y","COMPFL":"Y","SITEID":"703","AGE":84,"AGEGR1":">80","SEX":"F","RACE":"WHITE","ARMCD":"Pbo","TRTSDT":"2013-03-13","TRTEDT":"2013-09-14"},{"STUDYID":"CDISCPILOT01","USUBJID":"01-703-1100","DOMAIN":"ADQS","PARAMCD":"CIBIC","PARAM":"CIBIC+ Global Score","PARAMN":1,"AVISIT":"Week 26","AVISITN":26,"ADT":null,"ADY":null,"AVAL":5,"DTYPE":null,"ANL01FL":"Y","TRT01A":"Placebo","TRT01AN":1,"SAFFL":"Y","ITTFL":"Y","EFFFL":"Y","COMPFL":"Y","SITEID":"703","AGE":84,"AGEGR1":">80","SEX":"F","RACE":"WHITE","ARMCD":"Pbo","TRTSDT":"2013-03-13","TRTEDT":"2013-09-14"},{"STUDYID":"CDISCPILOT01","USUBJID":"01-703-1119","DOMAIN":"ADQS","PARAMCD":"CIBIC","PARAM":"CIBIC+ Global Score","PARAMN":1,"AVISIT":"Week 2","AVISITN":2,"ADT":null,"ADY":null,"AVAL":null,"DTYPE":null,"ANL01FL":"Y","TRT01A":"Xanomeline Low Dose","TRT01AN":2,"SAFFL":"Y","ITTFL":"Y","EFFFL":"Y","COMPFL":"N","SITEID":"703","AGE":81,"AGEGR1":">80","SEX":"F","RACE":"WHITE","ARMCD":"Xan_Lo","TRTSDT":"2013-02-20","TRTEDT":"2013-06-13"},{"STUDYID":"CDISCPILOT01","USUBJID":"01-703-1119","DOMAIN":"ADQS","PARAMCD":"CIBIC","PARAM":"CIBIC+ Global Score","PARAMN":1,"AVISIT":"Week 4","AVISITN":4,"ADT":null,"ADY":null,"AVAL":null,"DTYPE":null,"ANL01FL":"Y","TRT01A":"Xanomeline Low Dose","TRT01AN":2,"SAFFL":"Y","ITTFL":"Y","EFFFL":"Y","COMPFL":"N","SITEID":"703","AGE":81,"AGEGR1":">80","SEX":"F","RACE":"WHITE","ARMCD":"Xan_Lo","TRTSDT":"2013-02-20","TRTEDT":"2013-06-13"},{"STUDYID":"CDISCPILOT01","USUBJID":"01-703-1119","DOMAIN":"ADQS","PARAMCD":"CIBIC","PARAM":"CIBIC+ Global Score","PARAMN":1,"AVISIT":"Week 6","AVISITN":6,"ADT":null,"ADY":null,"AVAL":null,"DTYPE":null,"ANL01FL":"Y","TRT01A":"Xanomeline Low Dose","TRT01AN":2,"SAFFL":"Y","ITTFL":"Y","EFFFL":"Y","COMPFL":"N","SITEID":"703","AGE":81,"AGEGR1":">80","SEX":"F","RACE":"WHITE","ARMCD":"Xan_Lo","TRTSDT":"2013-02-20","TRTEDT":"2013-06-13"},{"STUDYID":"CDISCPILOT01","USUBJID":"01-703-1119","DOMAIN":"ADQS","PARAMCD":"CIBIC","PARAM":"CIBIC+ Global Score","PARAMN":1,"AVISIT":"Week 8","AVISITN":8,"ADT":"2013-04-19","ADY":59,"AVAL":4,"DTYPE":null,"ANL01FL":"Y","TRT01A":"Xanomeline Low Dose","TRT01AN":2,"SAFFL":"Y","ITTFL":"Y","EFFFL":"Y","COMPFL":"N","SITEID":"703","AGE":81,"AGEGR1":">80","SEX":"F","RACE":"WHITE","ARMCD":"Xan_Lo","TRTSDT":"2013-02-20","TRTEDT":"2013-06-13"},{"STUDYID":"CDISCPILOT01","USUBJID":"01-703-1119","DOMAIN":"ADQS","PARAMCD":"CIBIC","PARAM":"CIBIC+ Global Score","PARAMN":1,"AVISIT":"Week 12","AVISITN":12,"ADT":null,"ADY":null,"AVAL":4,"DTYPE":null,"ANL01FL":"Y","TRT01A":"Xanomeline Low Dose","TRT01AN":2,"SAFFL":"Y","ITTFL":"Y","EFFFL":"Y","COMPFL":"N","SITEID":"703","AGE":81,"AGEGR1":">80","SEX":"F","RACE":"WHITE","ARMCD":"Xan_Lo","TRTSDT":"2013-02-20","TRTEDT":"2013-06-13"},{"STUDYID":"CDISCPILOT01","USUBJID":"01-703-1119","DOMAIN":"ADQS","PARAMCD":"CIBIC","PARAM":"CIBIC+ Global Score","PARAMN":1,"AVISIT":"Week 16","AVISITN":16,"ADT":"2013-06-13","ADY":114,"AVAL":5,"DTYPE":null,"ANL01FL":"Y","TRT01A":"Xanomeline Low Dose","TRT01AN":2,"SAFFL":"Y","ITTFL":"Y","EFFFL":"Y","COMPFL":"N","SITEID":"703","AGE":81,"AGEGR1":">80","SEX":"F","RACE":"WHITE","ARMCD":"Xan_Lo","TRTSDT":"2013-02-20","TRTEDT":"2013-06-13"},{"STUDYID":"CDISCPILOT01","USUBJID":"01-703-1119","DOMAIN":"ADQS","PARAMCD":"CIBIC","PARAM":"CIBIC+ Global Score","PARAMN":1,"AVISIT":"Week 20","AVISITN":20,"ADT":null,"ADY":null,"AVAL":5,"DTYPE":null,"ANL01FL":"Y","TRT01A":"Xanomeline Low Dose","TRT01AN":2,"SAFFL":"Y","ITTFL":"Y","EFFFL":"Y","COMPFL":"N","SITEID":"703","AGE":81,"AGEGR1":">80","SEX":"F","RACE":"WHITE","ARMCD":"Xan_Lo","TRTSDT":"2013-02-20","TRTEDT":"2013-06-13"},{"STUDYID":"CDISCPILOT01","USUBJID":"01-703-1119","DOMAIN":"ADQS","PARAMCD":"CIBIC","PARAM":"CIBIC+ Global Score","PARAMN":1,"AVISIT":"Week 24","AVISITN":24,"ADT":"2013-08-24","ADY":186,"AVAL":5,"DTYPE":null,"ANL01FL":"Y","TRT01A":"Xanomeline Low Dose","TRT01AN":2,"SAFFL":"Y","ITTFL":"Y","EFFFL":"Y","COMPFL":"N","SITEID":"703","AGE":81,"AGEGR1":">80","SEX":"F","RACE":"WHITE","ARMCD":"Xan_Lo","TRTSDT":"2013-02-20","TRTEDT":"2013-06-13"},{"STUDYID":"CDISCPILOT01","USUBJID":"01-703-1119","DOMAIN":"ADQS","PARAMCD":"CIBIC","PARAM":"CIBIC+ Global Score","PARAMN":1,"AVISIT":"Week 26","AVISITN":26,"ADT":null,"ADY":null,"AVAL":5,"DTYPE":null,"ANL01FL":"Y","TRT01A":"Xanomeline Low Dose","TRT01AN":2,"SAFFL":"Y","ITTFL":"Y","EFFFL":"Y","COMPFL":"N","SITEID":"703","AGE":81,"AGEGR1":">80","SEX":"F","RACE":"WHITE","ARMCD":"Xan_Lo","TRTSDT":"2013-02-20","TRTEDT":"2013-06-13"},{"STUDYID":"CDISCPILOT01","USUBJID":"01-703-1175","DOMAIN":"ADQS","PARAMCD":"CIBIC","PARAM":"CIBIC+ Global Score","PARAMN":1,"AVISIT":"Week 2","AVISITN":2,"ADT":"2013-12-31","ADY":12,"AVAL":4,"DTYPE":null,"ANL01FL":"Y","TRT01A":"Placebo","TRT01AN":1,"SAFFL":"Y","ITTFL":"Y","EFFFL":"Y","COMPFL":"N","SITEID":"703","AGE":75,"AGEGR1":"65-80","SEX":"M","RACE":"WHITE","ARMCD":"Pbo","TRTSDT":"2013-12-20","TRTEDT":"2013-12-26"},{"STUDYID":"CDISCPILOT01","USUBJID":"01-703-1175","DOMAIN":"ADQS","PARAMCD":"CIBIC","PARAM":"CIBIC+ Global Score","PARAMN":1,"AVISIT":"Week 4","AVISITN":4,"ADT":null,"ADY":null,"AVAL":4,"DTYPE":null,"ANL01FL":"Y","TRT01A":"Placebo","TRT01AN":1,"SAFFL":"Y","ITTFL":"Y","EFFFL":"Y","COMPFL":"N","SITEID":"703","AGE":75,"AGEGR1":"65-80","SEX":"M","RACE":"WHITE","ARMCD":"Pbo","TRTSDT":"2013-12-20","TRTEDT":"2013-12-26"},{"STUDYID":"CDISCPILOT01","USUBJID":"01-703-1175","DOMAIN":"ADQS","PARAMCD":"CIBIC","PARAM":"CIBIC+ Global Score","PARAMN":1,"AVISIT":"Week 6","AVISITN":6,"ADT":null,"ADY":null,"AVAL":4,"DTYPE":null,"ANL01FL":"Y","TRT01A":"Placebo","TRT01AN":1,"SAFFL":"Y","ITTFL":"Y","EFFFL":"Y","COMPFL":"N","SITEID":"703","AGE":75,"AGEGR1":"65-80","SEX":"M","RACE":"WHITE","ARMCD":"Pbo","TRTSDT":"2013-12-20","TRTEDT":"2013-12-26"},{"STUDYID":"CDISCPILOT01","USUBJID":"01-703-1175","DOMAIN":"ADQS","PARAMCD":"CIBIC","PARAM":"CIBIC+ Global Score","PARAMN":1,"AVISIT":"Week 8","AVISITN":8,"ADT":null,"ADY":null,"AVAL":4,"DTYPE":"LOCF","ANL01FL":"Y","TRT01A":"Placebo","TRT01AN":1,"SAFFL":"Y","ITTFL":"Y","EFFFL":"Y","COMPFL":"N","SITEID":"703","AGE":75,"AGEGR1":"65-80","SEX":"M","RACE":"WHITE","ARMCD":"Pbo","TRTSDT":"2013-12-20","TRTEDT":"2013-12-26"},{"STUDYID":"CDISCPILOT01","USUBJID":"01-703-1175","DOMAIN":"ADQS","PARAMCD":"CIBIC","PARAM":"CIBIC+ Global Score","PARAMN":1,"AVISIT":"Week 12","AVISITN":12,"ADT":null,"ADY":null,"AVAL":4,"DTYPE":null,"ANL01FL":"Y","TRT01A":"Placebo","TRT01AN":1,"SAFFL":"Y","ITTFL":"Y","EFFFL":"Y","COMPFL":"N","SITEID":"703","AGE":75,"AGEGR1":"65-80","SEX":"M","RACE":"WHITE","ARMCD":"Pbo","TRTSDT":"2013-12-20","TRTEDT":"2013-12-26"},{"STUDYID":"CDISCPILOT01","USUBJID":"01-703-1175","DOMAIN":"ADQS","PARAMCD":"CIBIC","PARAM":"CIBIC+ Global Score","PARAMN":1,"AVISIT":"Week 16","AVISITN":16,"ADT":null,"ADY":null,"AVAL":4,"DTYPE":"LOCF","ANL01FL":"Y","TRT01A":"Placebo","TRT01AN":1,"SAFFL":"Y","ITTFL":"Y","EFFFL":"Y","COMPFL":"N","SITEID":"703","AGE":75,"AGEGR1":"65-80","SEX":"M","RACE":"WHITE","ARMCD":"Pbo","TRTSDT":"2013-12-20","TRTEDT":"2013-12-26"},{"STUDYID":"CDISCPILOT01","USUBJID":"01-703-1175","DOMAIN":"ADQS","PARAMCD":"CIBIC","PARAM":"CIBIC+ Global Score","PARAMN":1,"AVISIT":"Week 20","AVISITN":20,"ADT":null,"ADY":null,"AVAL":4,"DTYPE":null,"ANL01FL":"Y","TRT01A":"Placebo","TRT01AN":1,"SAFFL":"Y","ITTFL":"Y","EFFFL":"Y","COMPFL":"N","SITEID":"703","AGE":75,"AGEGR1":"65-80","SEX":"M","RACE":"WHITE","ARMCD":"Pbo","TRTSDT":"2013-12-20","TRTEDT":"2013-12-26"},{"STUDYID":"CDISCPILOT01","USUBJID":"01-703-1175","DOMAIN":"ADQS","PARAMCD":"CIBIC","PARAM":"CIBIC+ Global Score","PARAMN":1,"AVISIT":"Week 24","AVISITN":24,"ADT":null,"ADY":null,"AVAL":4,"DTYPE":"LOCF","ANL01FL":"Y","TRT01A":"Placebo","TRT01AN":1,"SAFFL":"Y","ITTFL":"Y","EFFFL":"Y","COMPFL":"N","SITEID":"703","AGE":75,"AGEGR1":"65-80","SEX":"M","RACE":"WHITE","ARMCD":"Pbo","TRTSDT":"2013-12-20","TRTEDT":"2013-12-26"},{"STUDYID":"CDISCPILOT01","USUBJID":"01-703-1175","DOMAIN":"ADQS","PARAMCD":"CIBIC","PARAM":"CIBIC+ Global Score","PARAMN":1,"AVISIT":"Week 26","AVISITN":26,"ADT":null,"ADY":null,"AVAL":4,"DTYPE":null,"ANL01FL":"Y","TRT01A":"Placebo","TRT01AN":1,"SAFFL":"Y","ITTFL":"Y","EFFFL":"Y","COMPFL":"N","SITEID":"703","AGE":75,"AGEGR1":"65-80","SEX":"M","RACE":"WHITE","ARMCD":"Pbo","TRTSDT":"2013-12-20","TRTEDT":"2013-12-26"},{"STUDYID":"CDISCPILOT01","USUBJID":"01-703-1182","DOMAIN":"ADQS","PARAMCD":"CIBIC","PARAM":"CIBIC+ Global Score","PARAMN":1,"AVISIT":"Week 2","AVISITN":2,"ADT":null,"ADY":null,"AVAL":null,"DTYPE":null,"ANL01FL":"Y","TRT01A":"Xanomeline Low Dose","TRT01AN":2,"SAFFL":"Y","ITTFL":"Y","EFFFL":"Y","COMPFL":"N","SITEID":"703","AGE":84,"AGEGR1":">80","SEX":"M","RACE":"WHITE","ARMCD":"Xan_Lo","TRTSDT":"2013-10-17","TRTEDT":"2013-12-11"},{"STUDYID":"CDISCPILOT01","USUBJID":"01-703-1182","DOMAIN":"ADQS","PARAMCD":"CIBIC","PARAM":"CIBIC+ Global Score","PARAMN":1,"AVISIT":"Week 4","AVISITN":4,"ADT":null,"ADY":null,"AVAL":null,"DTYPE":null,"ANL01FL":"Y","TRT01A":"Xanomeline Low Dose","TRT01AN":2,"SAFFL":"Y","ITTFL":"Y","EFFFL":"Y","COMPFL":"N","SITEID":"703","AGE":84,"AGEGR1":">80","SEX":"M","RACE":"WHITE","ARMCD":"Xan_Lo","TRTSDT":"2013-10-17","TRTEDT":"2013-12-11"},{"STUDYID":"CDISCPILOT01","USUBJID":"01-703-1182","DOMAIN":"ADQS","PARAMCD":"CIBIC","PARAM":"CIBIC+ Global Score","PARAMN":1,"AVISIT":"Week 6","AVISITN":6,"ADT":null,"ADY":null,"AVAL":null,"DTYPE":null,"ANL01FL":"Y","TRT01A":"Xanomeline Low Dose","TRT01AN":2,"SAFFL":"Y","ITTFL":"Y","EFFFL":"Y","COMPFL":"N","SITEID":"703","AGE":84,"AGEGR1":">80","SEX":"M","RACE":"WHITE","ARMCD":"Xan_Lo","TRTSDT":"2013-10-17","TRTEDT":"2013-12-11"},{"STUDYID":"CDISCPILOT01","USUBJID":"01-703-1182","DOMAIN":"ADQS","PARAMCD":"CIBIC","PARAM":"CIBIC+ Global Score","PARAMN":1,"AVISIT":"Week 8","AVISITN":8,"ADT":"2013-12-12","ADY":57,"AVAL":4,"DTYPE":null,"ANL01FL":"Y","TRT01A":"Xanomeline Low Dose","TRT01AN":2,"SAFFL":"Y","ITTFL":"Y","EFFFL":"Y","COMPFL":"N","SITEID":"703","AGE":84,"AGEGR1":">80","SEX":"M","RACE":"WHITE","ARMCD":"Xan_Lo","TRTSDT":"2013-10-17","TRTEDT":"2013-12-11"},{"STUDYID":"CDISCPILOT01","USUBJID":"01-703-1182","DOMAIN":"ADQS","PARAMCD":"CIBIC","PARAM":"CIBIC+ Global Score","PARAMN":1,"AVISIT":"Week 12","AVISITN":12,"ADT":null,"ADY":null,"AVAL":4,"DTYPE":null,"ANL01FL":"Y","TRT01A":"Xanomeline Low Dose","TRT01AN":2,"SAFFL":"Y","ITTFL":"Y","EFFFL":"Y","COMPFL":"N","SITEID":"703","AGE":84,"AGEGR1":">80","SEX":"M","RACE":"WHITE","ARMCD":"Xan_Lo","TRTSDT":"2013-10-17","TRTEDT":"2013-12-11"},{"STUDYID":"CDISCPILOT01","USUBJID":"01-703-1182","DOMAIN":"ADQS","PARAMCD":"CIBIC","PARAM":"CIBIC+ Global Score","PARAMN":1,"AVISIT":"Week 16","AVISITN":16,"ADT":null,"ADY":null,"AVAL":4,"DTYPE":"LOCF","ANL01FL":"Y","TRT01A":"Xanomeline Low Dose","TRT01AN":2,"SAFFL":"Y","ITTFL":"Y","EFFFL":"Y","COMPFL":"N","SITEID":"703","AGE":84,"AGEGR1":">80","SEX":"M","RACE":"WHITE","ARMCD":"Xan_Lo","TRTSDT":"2013-10-17","TRTEDT":"2013-12-11"},{"STUDYID":"CDISCPILOT01","USUBJID":"01-703-1182","DOMAIN":"ADQS","PARAMCD":"CIBIC","PARAM":"CIBIC+ Global Score","PARAMN":1,"AVISIT":"Week 20","AVISITN":20,"ADT":null,"ADY":null,"AVAL":4,"DTYPE":null,"ANL01FL":"Y","TRT01A":"Xanomeline Low Dose","TRT01AN":2,"SAFFL":"Y","ITTFL":"Y","EFFFL":"Y","COMPFL":"N","SITEID":"703","AGE":84,"AGEGR1":">80","SEX":"M","RACE":"WHITE","ARMCD":"Xan_Lo","TRTSDT":"2013-10-17","TRTEDT":"2013-12-11"},{"STUDYID":"CDISCPILOT01","USUBJID":"01-703-1182","DOMAIN":"ADQS","PARAMCD":"CIBIC","PARAM":"CIBIC+ Global Score","PARAMN":1,"AVISIT":"Week 24","AVISITN":24,"ADT":null,"ADY":null,"AVAL":4,"DTYPE":"LOCF","ANL01FL":"Y","TRT01A":"Xanomeline Low Dose","TRT01AN":2,"SAFFL":"Y","ITTFL":"Y","EFFFL":"Y","COMPFL":"N","SITEID":"703","AGE":84,"AGEGR1":">80","SEX":"M","RACE":"WHITE","ARMCD":"Xan_Lo","TRTSDT":"2013-10-17","TRTEDT":"2013-12-11"},{"STUDYID":"CDISCPILOT01","USUBJID":"01-703-1182","DOMAIN":"ADQS","PARAMCD":"CIBIC","PARAM":"CIBIC+ Global Score","PARAMN":1,"AVISIT":"Week 26","AVISITN":26,"ADT":null,"ADY":null,"AVAL":4,"DTYPE":null,"ANL01FL":"Y","TRT01A":"Xanomeline Low Dose","TRT01AN":2,"SAFFL":"Y","ITTFL":"Y","EFFFL":"Y","COMPFL":"N","SITEID":"703","AGE":84,"AGEGR1":">80","SEX":"M","RACE":"WHITE","ARMCD":"Xan_Lo","TRTSDT":"2013-10-17","TRTEDT":"2013-12-11"},{"STUDYID":"CDISCPILOT01","USUBJID":"01-703-1197","DOMAIN":"ADQS","PARAMCD":"CIBIC","PARAM":"CIBIC+ Global Score","PARAMN":1,"AVISIT":"Week 2","AVISITN":2,"ADT":"2013-07-22","ADY":37,"AVAL":4,"DTYPE":null,"ANL01FL":"Y","TRT01A":"Xanomeline Low Dose","TRT01AN":2,"SAFFL":"Y","ITTFL":"Y","EFFFL":"Y","COMPFL":"N","SITEID":"703","AGE":76,"AGEGR1":"65-80","SEX":"F","RACE":"BLACK OR AFRICAN AMERICAN","ARMCD":"Xan_Lo","TRTSDT":"2013-06-16","TRTEDT":"2013-06-29"},{"STUDYID":"CDISCPILOT01","USUBJID":"01-703-1197","DOMAIN":"ADQS","PARAMCD":"CIBIC","PARAM":"CIBIC+ Global Score","PARAMN":1,"AVISIT":"Week 4","AVISITN":4,"ADT":null,"ADY":null,"AVAL":4,"DTYPE":null,"ANL01FL":"Y","TRT01A":"Xanomeline Low Dose","TRT01AN":2,"SAFFL":"Y","ITTFL":"Y","EFFFL":"Y","COMPFL":"N","SITEID":"703","AGE":76,"AGEGR1":"65-80","SEX":"F","RACE":"BLACK OR AFRICAN AMERICAN","ARMCD":"Xan_Lo","TRTSDT":"2013-06-16","TRTEDT":"2013-06-29"},{"STUDYID":"CDISCPILOT01","USUBJID":"01-703-1197","DOMAIN":"ADQS","PARAMCD":"CIBIC","PARAM":"CIBIC+ Global Score","PARAMN":1,"AVISIT":"Week 6","AVISITN":6,"ADT":null,"ADY":null,"AVAL":4,"DTYPE":null,"ANL01FL":"Y","TRT01A":"Xanomeline Low Dose","TRT01AN":2,"SAFFL":"Y","ITTFL":"Y","EFFFL":"Y","COMPFL":"N","SITEID":"703","AGE":76,"AGEGR1":"65-80","SEX":"F","RACE":"BLACK OR AFRICAN AMERICAN","ARMCD":"Xan_Lo","TRTSDT":"2013-06-16","TRTEDT":"2013-06-29"},{"STUDYID":"CDISCPILOT01","USUBJID":"01-703-1197","DOMAIN":"ADQS","PARAMCD":"CIBIC","PARAM":"CIBIC+ Global Score","PARAMN":1,"AVISIT":"Week 8","AVISITN":8,"ADT":null,"ADY":null,"AVAL":4,"DTYPE":"LOCF","ANL01FL":"Y","TRT01A":"Xanomeline Low Dose","TRT01AN":2,"SAFFL":"Y","ITTFL":"Y","EFFFL":"Y","COMPFL":"N","SITEID":"703","AGE":76,"AGEGR1":"65-80","SEX":"F","RACE":"BLACK OR AFRICAN AMERICAN","ARMCD":"Xan_Lo","TRTSDT":"2013-06-16","TRTEDT":"2013-06-29"},{"STUDYID":"CDISCPILOT01","USUBJID":"01-703-1197","DOMAIN":"ADQS","PARAMCD":"CIBIC","PARAM":"CIBIC+ Global Score","PARAMN":1,"AVISIT":"Week 12","AVISITN":12,"ADT":null,"ADY":null,"AVAL":4,"DTYPE":null,"ANL01FL":"Y","TRT01A":"Xanomeline Low Dose","TRT01AN":2,"SAFFL":"Y","ITTFL":"Y","EFFFL":"Y","COMPFL":"N","SITEID":"703","AGE":76,"AGEGR1":"65-80","SEX":"F","RACE":"BLACK OR AFRICAN AMERICAN","ARMCD":"Xan_Lo","TRTSDT":"2013-06-16","TRTEDT":"2013-06-29"},{"STUDYID":"CDISCPILOT01","USUBJID":"01-703-1197","DOMAIN":"ADQS","PARAMCD":"CIBIC","PARAM":"CIBIC+ Global Score","PARAMN":1,"AVISIT":"Week 16","AVISITN":16,"ADT":null,"ADY":null,"AVAL":4,"DTYPE":"LOCF","ANL01FL":"Y","TRT01A":"Xanomeline Low Dose","TRT01AN":2,"SAFFL":"Y","ITTFL":"Y","EFFFL":"Y","COMPFL":"N","SITEID":"703","AGE":76,"AGEGR1":"65-80","SEX":"F","RACE":"BLACK OR AFRICAN AMERICAN","ARMCD":"Xan_Lo","TRTSDT":"2013-06-16","TRTEDT":"2013-06-29"},{"STUDYID":"CDISCPILOT01","USUBJID":"01-703-1197","DOMAIN":"ADQS","PARAMCD":"CIBIC","PARAM":"CIBIC+ Global Score","PARAMN":1,"AVISIT":"Week 20","AVISITN":20,"ADT":null,"ADY":null,"AVAL":4,"DTYPE":null,"ANL01FL":"Y","TRT01A":"Xanomeline Low Dose","TRT01AN":2,"SAFFL":"Y","ITTFL":"Y","EFFFL":"Y","COMPFL":"N","SITEID":"703","AGE":76,"AGEGR1":"65-80","SEX":"F","RACE":"BLACK OR AFRICAN AMERICAN","ARMCD":"Xan_Lo","TRTSDT":"2013-06-16","TRTEDT":"2013-06-29"},{"STUDYID":"CDISCPILOT01","USUBJID":"01-703-1197","DOMAIN":"ADQS","PARAMCD":"CIBIC","PARAM":"CIBIC+ Global Score","PARAMN":1,"AVISIT":"Week 24","AVISITN":24,"ADT":null,"ADY":null,"AVAL":4,"DTYPE":"LOCF","ANL01FL":"Y","TRT01A":"Xanomeline Low Dose","TRT01AN":2,"SAFFL":"Y","ITTFL":"Y","EFFFL":"Y","COMPFL":"N","SITEID":"703","AGE":76,"AGEGR1":"65-80","SEX":"F","RACE":"BLACK OR AFRICAN AMERICAN","ARMCD":"Xan_Lo","TRTSDT":"2013-06-16","TRTEDT":"2013-06-29"},{"STUDYID":"CDISCPILOT01","USUBJID":"01-703-1197","DOMAIN":"ADQS","PARAMCD":"CIBIC","PARAM":"CIBIC+ Global Score","PARAMN":1,"AVISIT":"Week 26","AVISITN":26,"ADT":null,"ADY":null,"AVAL":4,"DTYPE":null,"ANL01FL":"Y","TRT01A":"Xanomeline Low Dose","TRT01AN":2,"SAFFL":"Y","ITTFL":"Y","EFFFL":"Y","COMPFL":"N","SITEID":"703","AGE":76,"AGEGR1":"65-80","SEX":"F","RACE":"BLACK OR AFRICAN AMERICAN","ARMCD":"Xan_Lo","TRTSDT":"2013-06-16","TRTEDT":"2013-06-29"},{"STUDYID":"CDISCPILOT01","USUBJID":"01-703-1210","DOMAIN":"ADQS","PARAMCD":"CIBIC","PARAM":"CIBIC+ Global Score","PARAMN":1,"AVISIT":"Week 2","AVISITN":2,"ADT":null,"ADY":null,"AVAL":null,"DTYPE":null,"ANL01FL":"Y","TRT01A":"Placebo","TRT01AN":1,"SAFFL":"Y","ITTFL":"Y","EFFFL":"Y","COMPFL":"Y","SITEID":"703","AGE":72,"AGEGR1":"65-80","SEX":"F","RACE":"WHITE","ARMCD":"Pbo","TRTSDT":"2013-03-16","TRTEDT":"2013-09-06"},{"STUDYID":"CDISCPILOT01","USUBJID":"01-703-1210","DOMAIN":"ADQS","PARAMCD":"CIBIC","PARAM":"CIBIC+ Global Score","PARAMN":1,"AVISIT":"Week 4","AVISITN":4,"ADT":null,"ADY":null,"AVAL":null,"DTYPE":null,"ANL01FL":"Y","TRT01A":"Placebo","TRT01AN":1,"SAFFL":"Y","ITTFL":"Y","EFFFL":"Y","COMPFL":"Y","SITEID":"703","AGE":72,"AGEGR1":"65-80","SEX":"F","RACE":"WHITE","ARMCD":"Pbo","TRTSDT":"2013-03-16","TRTEDT":"2013-09-06"},{"STUDYID":"CDISCPILOT01","USUBJID":"01-703-1210","DOMAIN":"ADQS","PARAMCD":"CIBIC","PARAM":"CIBIC+ Global Score","PARAMN":1,"AVISIT":"Week 6","AVISITN":6,"ADT":null,"ADY":null,"AVAL":null,"DTYPE":null,"ANL01FL":"Y","TRT01A":"Placebo","TRT01AN":1,"SAFFL":"Y","ITTFL":"Y","EFFFL":"Y","COMPFL":"Y","SITEID":"703","AGE":72,"AGEGR1":"65-80","SEX":"F","RACE":"WHITE","ARMCD":"Pbo","TRTSDT":"2013-03-16","TRTEDT":"2013-09-06"},{"STUDYID":"CDISCPILOT01","USUBJID":"01-703-1210","DOMAIN":"ADQS","PARAMCD":"CIBIC","PARAM":"CIBIC+ Global Score","PARAMN":1,"AVISIT":"Week 8","AVISITN":8,"ADT":"2013-05-10","ADY":56,"AVAL":5,"DTYPE":null,"ANL01FL":"Y","TRT01A":"Placebo","TRT01AN":1,"SAFFL":"Y","ITTFL":"Y","EFFFL":"Y","COMPFL":"Y","SITEID":"703","AGE":72,"AGEGR1":"65-80","SEX":"F","RACE":"WHITE","ARMCD":"Pbo","TRTSDT":"2013-03-16","TRTEDT":"2013-09-06"},{"STUDYID":"CDISCPILOT01","USUBJID":"01-703-1210","DOMAIN":"ADQS","PARAMCD":"CIBIC","PARAM":"CIBIC+ Global Score","PARAMN":1,"AVISIT":"Week 12","AVISITN":12,"ADT":null,"ADY":null,"AVAL":5,"DTYPE":null,"ANL01FL":"Y","TRT01A":"Placebo","TRT01AN":1,"SAFFL":"Y","ITTFL":"Y","EFFFL":"Y","COMPFL":"Y","SITEID":"703","AGE":72,"AGEGR1":"65-80","SEX":"F","RACE":"WHITE","ARMCD":"Pbo","TRTSDT":"2013-03-16","TRTEDT":"2013-09-06"},{"STUDYID":"CDISCPILOT01","USUBJID":"01-703-1210","DOMAIN":"ADQS","PARAMCD":"CIBIC","PARAM":"CIBIC+ Global Score","PARAMN":1,"AVISIT":"Week 16","AVISITN":16,"ADT":"2013-07-05","ADY":112,"AVAL":4,"DTYPE":null,"ANL01FL":"Y","TRT01A":"Placebo","TRT01AN":1,"SAFFL":"Y","ITTFL":"Y","EFFFL":"Y","COMPFL":"Y","SITEID":"703","AGE":72,"AGEGR1":"65-80","SEX":"F","RACE":"WHITE","ARMCD":"Pbo","TRTSDT":"2013-03-16","TRTEDT":"2013-09-06"},{"STUDYID":"CDISCPILOT01","USUBJID":"01-703-1210","DOMAIN":"ADQS","PARAMCD":"CIBIC","PARAM":"CIBIC+ Global Score","PARAMN":1,"AVISIT":"Week 20","AVISITN":20,"ADT":null,"ADY":null,"AVAL":4,"DTYPE":null,"ANL01FL":"Y","TRT01A":"Placebo","TRT01AN":1,"SAFFL":"Y","ITTFL":"Y","EFFFL":"Y","COMPFL":"Y","SITEID":"703","AGE":72,"AGEGR1":"65-80","SEX":"F","RACE":"WHITE","ARMCD":"Pbo","TRTSDT":"2013-03-16","TRTEDT":"2013-09-06"},{"STUDYID":"CDISCPILOT01","USUBJID":"01-703-1210","DOMAIN":"ADQS","PARAMCD":"CIBIC","PARAM":"CIBIC+ Global Score","PARAMN":1,"AVISIT":"Week 24","AVISITN":24,"ADT":"2013-08-24","ADY":162,"AVAL":5,"DTYPE":null,"ANL01FL":"Y","TRT01A":"Placebo","TRT01AN":1,"SAFFL":"Y","ITTFL":"Y","EFFFL":"Y","COMPFL":"Y","SITEID":"703","AGE":72,"AGEGR1":"65-80","SEX":"F","RACE":"WHITE","ARMCD":"Pbo","TRTSDT":"2013-03-16","TRTEDT":"2013-09-06"},{"STUDYID":"CDISCPILOT01","USUBJID":"01-703-1210","DOMAIN":"ADQS","PARAMCD":"CIBIC","PARAM":"CIBIC+ Global Score","PARAMN":1,"AVISIT":"Week 26","AVISITN":26,"ADT":null,"ADY":null,"AVAL":5,"DTYPE":null,"ANL01FL":"Y","TRT01A":"Placebo","TRT01AN":1,"SAFFL":"Y","ITTFL":"Y","EFFFL":"Y","COMPFL":"Y","SITEID":"703","AGE":72,"AGEGR1":"65-80","SEX":"F","RACE":"WHITE","ARMCD":"Pbo","TRTSDT":"2013-03-16","TRTEDT":"2013-09-06"},{"STUDYID":"CDISCPILOT01","USUBJID":"01-703-1258","DOMAIN":"ADQS","PARAMCD":"CIBIC","PARAM":"CIBIC+ Global Score","PARAMN":1,"AVISIT":"Week 2","AVISITN":2,"ADT":null,"ADY":null,"AVAL":null,"DTYPE":null,"ANL01FL":"Y","TRT01A":"Xanomeline High Dose","TRT01AN":3,"SAFFL":"Y","ITTFL":"Y","EFFFL":"Y","COMPFL":"Y","SITEID":"703","AGE":78,"AGEGR1":"65-80","SEX":"F","RACE":"WHITE","ARMCD":"Xan_Hi","TRTSDT":"2012-07-20","TRTEDT":"2013-01-11"},{"STUDYID":"CDISCPILOT01","USUBJID":"01-703-1258","DOMAIN":"ADQS","PARAMCD":"CIBIC","PARAM":"CIBIC+ Global Score","PARAMN":1,"AVISIT":"Week 4","AVISITN":4,"ADT":null,"ADY":null,"AVAL":null,"DTYPE":null,"ANL01FL":"Y","TRT01A":"Xanomeline High Dose","TRT01AN":3,"SAFFL":"Y","ITTFL":"Y","EFFFL":"Y","COMPFL":"Y","SITEID":"703","AGE":78,"AGEGR1":"65-80","SEX":"F","RACE":"WHITE","ARMCD":"Xan_Hi","TRTSDT":"2012-07-20","TRTEDT":"2013-01-11"},{"STUDYID":"CDISCPILOT01","USUBJID":"01-703-1258","DOMAIN":"ADQS","PARAMCD":"CIBIC","PARAM":"CIBIC+ Global Score","PARAMN":1,"AVISIT":"Week 6","AVISITN":6,"ADT":null,"ADY":null,"AVAL":null,"DTYPE":null,"ANL01FL":"Y","TRT01A":"Xanomeline High Dose","TRT01AN":3,"SAFFL":"Y","ITTFL":"Y","EFFFL":"Y","COMPFL":"Y","SITEID":"703","AGE":78,"AGEGR1":"65-80","SEX":"F","RACE":"WHITE","ARMCD":"Xan_Hi","TRTSDT":"2012-07-20","TRTEDT