[{"STUDYID":"CDISCPILOT01","USUBJID":"01-701-1015","DOMAIN":"ADTTE","PARAMCD":"TTDERM","PARAM":"Time to First Dermatological TEAE (days)","PARAMN":1,"ADT":"2014-07-02","AVAL":182,"CNSR":1,"EVNTFL":"N","CNSDTDSC":"LAST KNOWN ON-STUDY DATE","TRT01A":"Placebo","TRT01AN":1,"SAFFL":"Y","ITTFL":"Y","SITEID":"701","AGE":63,"AGEGR1":"<65","SEX":"F","RACE":"WHITE","ARMCD":"Pbo","TRTSDT":"2014-01-02","TRTEDT":"2014-07-02"},{"STUDYID":"CDISCPILOT01","USUBJID":"01-701-1023","DOMAIN":"ADTTE","PARAMCD":"TTDERM","PARAM":"Time to First Dermatological TEAE (days)","PARAMN":1,"ADT":"2012-08-07","AVAL":3,"CNSR":0,"EVNTFL":"Y","CNSDTDSC":null,"TRT01A":"Placebo","TRT01AN":1,"SAFFL":"Y","ITTFL":"Y","SITEID":"701","AGE":64,"AGEGR1":"<65","SEX":"M","RACE":"WHITE","ARMCD":"Pbo","TRTSDT":"2012-08-05","TRTEDT":"2012-09-01"},{"STUDYID":"CDISCPILOT01","USUBJID":"01-701-1028","DOMAIN":"ADTTE","PARAMCD":"TTDERM","PARAM":"Time to First Dermatological TEAE (days)","PARAMN":1,"ADT":"2014-01-14","AVAL":180,"CNSR":1,"EVNTFL":"N","CNSDTDSC":"LAST KNOWN ON-STUDY DATE","TRT01A":"Xanomeline High Dose","TRT01AN":3,"SAFFL":"Y","ITTFL":"Y","SITEID":"701","AGE":71,"AGEGR1":"65-80","SEX":"M","RACE":"WHITE","ARMCD":"Xan_Hi","TRTSDT":"2013-07-19","TRTEDT":"2014-01-14"},{"STUDYID":"CDISCPILOT01","USUBJID":"01-701-1033","DOMAIN":"ADTTE","PARAMCD":"TTDERM","PARAM":"Time to First Dermatological TEAE (days)","PARAMN":1,"ADT":"2014-03-31","AVAL":14,"CNSR":1,"EVNTFL":"N","CNSDTDSC":"LAST KNOWN ON-STUDY DATE","TRT01A":"Xanomeline Low Dose","TRT01AN":2,"SAFFL":"Y","ITTFL":"Y","SITEID":"701","AGE":74,"AGEGR1":"65-80","SEX":"M","RACE":"WHITE","ARMCD":"Xan_Lo","TRTSDT":"2014-03-18","TRTEDT":"2014-03-31"},{"STUDYID":"CDISCPILOT01","USUBJID":"01-701-1034","DOMAIN":"ADTTE","PARAMCD":"TTDERM","PARAM":"Time to First Dermatological TEAE (days)","PARAMN":1,"ADT":"2014-12-30","AVAL":183,"CNSR":1,"EVNTFL":"N","CNSDTDSC":"LAST KNOWN ON-STUDY DATE","TRT01A":"Xanomeline High Dose","TRT01AN":3,"SAFFL":"Y","ITTFL":"Y","SITEID":"701","AGE":77,"AGEGR1":"65-80","SEX":"F","RACE":"WHITE","ARMCD":"Xan_Hi","TRTSDT":"2014-07-01","TRTEDT":"2014-12-30"},{"STUDYID":"CDISCPILOT01","USUBJID":"01-701-1047","DOMAIN":"ADTTE","PARAMCD":"TTDERM","PARAM":"Time to First Dermatological TEAE (days)","PARAMN":1,"ADT":"2013-03-09","AVAL":26,"CNSR":1,"EVNTFL":"N","CNSDTDSC":"LAST KNOWN ON-STUDY DATE","TRT01A":"Placebo","TRT01AN":1,"SAFFL":"Y","ITTFL":"Y","SITEID":"701","AGE":85,"AGEGR1":">80","SEX":"F","RACE":"WHITE","ARMCD":"Pbo","TRTSDT":"2013-02-12","TRTEDT":"2013-03-09"},{"STUDYID":"CDISCPILOT01","USUBJID":"01-701-1097","DOMAIN":"ADTTE","PARAMCD":"TTDERM","PARAM":"Time to First Dermatological TEAE (days)","PARAMN":1,"ADT":"2014-01-03","AVAL":3,"CNSR":0,"EVNTFL":"Y","CNSDTDSC":null,"TRT01A":"Xanomeline Low Dose","TRT01AN":2,"SAFFL":"Y","ITTFL":"Y","SITEID":"701","AGE":68,"AGEGR1":"65-80","SEX":"M","RACE":"WHITE","ARMCD":"Xan_Lo","TRTSDT":"2014-01-01","TRTEDT":"2014-07-09"},{"STUDYID":"CDISCPILOT01","USUBJID":"01-701-1111","DOMAIN":"ADTTE","PARAMCD":"TTDERM","PARAM":"Time to First Dermatological TEAE (days)","PARAMN":1,"ADT":"2012-09-16","AVAL":10,"CNSR":1,"EVNTFL":"N","CNSDTDSC":"LAST KNOWN ON-STUDY DATE","TRT01A":"Xanomeline Low Dose","TRT01AN":2,"SAFFL":"Y","ITTFL":"Y","SITEID":"701","AGE":81,"AGEGR1":">80","SEX":"F","RACE":"WHITE","ARMCD":"Xan_Lo","TRTSDT":"2012-09-07","TRTEDT":"2012-09-16"},{"STUDYID":"CDISCPILOT01","USUBJID":"01-701-1115","DOMAIN":"ADTTE","PARAMCD":"TTDERM","PARAM":"Time to First Dermatological TEAE (days)","PARAMN":1,"ADT":"2013-01-23","AVAL":55,"CNSR":1,"EVNTFL":"N","CNSDTDSC":"LAST KNOWN ON-STUDY DATE","TRT01A":"Xanomeline Low Dose","TRT01AN":2,"SAFFL":"Y","ITTFL":"Y","SITEID":"701","AGE":84,"AGEGR1":">80","SEX":"M","RACE":"WHITE","ARMCD":"Xan_Lo","TRTSDT":"2012-11-30","TRTEDT":"2013-01-23"},{"STUDYID":"CDISCPILOT01","USUBJID":"01-701-1118","DOMAIN":"ADTTE","PARAMCD":"TTDERM","PARAM":"Time to First Dermatological TEAE (days)","PARAMN":1,"ADT":"2014-09-09","AVAL":182,"CNSR":1,"EVNTFL":"N","CNSDTDSC":"LAST KNOWN ON-STUDY DATE","TRT01A":"Placebo","TRT01AN":1,"SAFFL":"Y","ITTFL":"Y","SITEID":"701","AGE":52,"AGEGR1":"<65","SEX":"M","RACE":"WHITE","ARMCD":"Pbo","TRTSDT":"2014-03-12","TRTEDT":"2014-09-09"},{"STUDYID":"CDISCPILOT01","USUBJID":"01-701-1130","DOMAIN":"ADTTE","PARAMCD":"TTDERM","PARAM":"Time to First Dermatological TEAE (days)","PARAMN":1,"ADT":"2014-05-22","AVAL":97,"CNSR":0,"EVNTFL":"Y","CNSDTDSC":null,"TRT01A":"Placebo","TRT01AN":1,"SAFFL":"Y","ITTFL":"Y","SITEID":"701","AGE":84,"AGEGR1":">80","SEX":"M","RACE":"WHITE","ARMCD":"Pbo","TRTSDT":"2014-02-15","TRTEDT":"2014-08-16"},{"STUDYID":"CDISCPILOT01","USUBJID":"01-701-1133","DOMAIN":"ADTTE","PARAMCD":"TTDERM","PARAM":"Time to First Dermatological TEAE (days)","PARAMN":1,"ADT":"2013-04-28","AVAL":183,"CNSR":1,"EVNTFL":"N","CNSDTDSC":"LAST KNOWN ON-STUDY DATE","TRT01A":"Xanomeline High Dose","TRT01AN":3,"SAFFL":"Y","ITTFL":"Y","SITEID":"701","AGE":81,"AGEGR1":">80","SEX":"F","RACE":"WHITE","ARMCD":"Xan_Hi","TRTSDT":"2012-10-28","TRTEDT":"2013-04-28"},{"STUDYID":"CDISCPILOT01","USUBJID":"01-701-1146","DOMAIN":"ADTTE","PARAMCD":"TTDERM","PARAM":"Time to First Dermatological TEAE (days)","PARAMN":1,"ADT":"2013-06-26","AVAL":38,"CNSR":1,"EVNTFL":"N","CNSDTDSC":"LAST KNOWN ON-STUDY DATE","TRT01A":"Xanomeline High Dose","TRT01AN":3,"SAFFL":"Y","ITTFL":"Y","SITEID":"701","AGE":75,"AGEGR1":"65-80","SEX":"F","RACE":"WHITE","ARMCD":"Xan_Hi","TRTSDT":"2013-05-20","TRTEDT":"2013-06-26"},{"STUDYID":"CDISCPILOT01","USUBJID":"01-701-1148","DOMAIN":"ADTTE","PARAMCD":"TTDERM","PARAM":"Time to First Dermatological TEAE (days)","PARAMN":1,"ADT":"2014-02-12","AVAL":174,"CNSR":0,"EVNTFL":"Y","CNSDTDSC":null,"TRT01A":"Xanomeline High Dose","TRT01AN":3,"SAFFL":"Y","ITTFL":"Y","SITEID":"701","AGE":57,"AGEGR1":"<65","SEX":"M","RACE":"WHITE","ARMCD":"Xan_Hi","TRTSDT":"2013-08-23","TRTEDT":"2014-02-20"},{"STUDYID":"CDISCPILOT01","USUBJID":"01-701-1153","DOMAIN":"ADTTE","PARAMCD":"TTDERM","PARAM":"Time to First Dermatological TEAE (days)","PARAMN":1,"ADT":"2014-03-16","AVAL":175,"CNSR":1,"EVNTFL":"N","CNSDTDSC":"LAST KNOWN ON-STUDY DATE","TRT01A":"Placebo","TRT01AN":1,"SAFFL":"Y","ITTFL":"Y","SITEID":"701","AGE":79,"AGEGR1":"65-80","SEX":"F","RACE":"WHITE","ARMCD":"Pbo","TRTSDT":"2013-09-23","TRTEDT":"2014-03-16"},{"STUDYID":"CDISCPILOT01","USUBJID":"01-701-1180","DOMAIN":"ADTTE","PARAMCD":"TTDERM","PARAM":"Time to First Dermatological TEAE (days)","PARAMN":1,"ADT":"2013-03-18","AVAL":35,"CNSR":1,"EVNTFL":"N","CNSDTDSC":"LAST KNOWN ON-STUDY DATE","TRT01A":"Xanomeline High Dose","TRT01AN":3,"SAFFL":"Y","ITTFL":"Y","SITEID":"701","AGE":56,"AGEGR1":"<65","SEX":"M","RACE":"WHITE","ARMCD":"Xan_Hi","TRTSDT":"2013-02-12","TRTEDT":"2013-03-18"},{"STUDYID":"CDISCPILOT01","USUBJID":"01-701-1181","DOMAIN":"ADTTE","PARAMCD":"TTDERM","PARAM":"Time to First Dermatological TEAE (days)","PARAMN":1,"ADT":"2013-12-09","AVAL":5,"CNSR":1,"EVNTFL":"N","CNSDTDSC":"LAST KNOWN ON-STUDY DATE","TRT01A":"Xanomeline High Dose","TRT01AN":3,"SAFFL":"Y","ITTFL":"Y","SITEID":"701","AGE":79,"AGEGR1":"65-80","SEX":"F","RACE":"WHITE","ARMCD":"Xan_Hi","TRTSDT":"2013-12-05","TRTEDT":"2013-12-09"},{"STUDYID":"CDISCPILOT01","USUBJID":"01-701-1188","DOMAIN":"ADTTE","PARAMCD":"TTDERM","PARAM":"Time to First Dermatological TEAE (days)","PARAMN":1,"ADT":"2013-02-16","AVAL":2,"CNSR":0,"EVNTFL":"Y","CNSDTDSC":null,"TRT01A":"Xanomeline Low Dose","TRT01AN":2,"SAFFL":"Y","ITTFL":"Y","SITEID":"701","AGE":71,"AGEGR1":"65-80","SEX":"M","RACE":"WHITE","ARMCD":"Xan_Lo","TRTSDT":"2013-02-15","TRTEDT":"2013-03-24"},{"STUDYID":"CDISCPILOT01","USUBJID":"01-701-1192","DOMAIN":"ADTTE","PARAMCD":"TTDERM","PARAM":"Time to First Dermatological TEAE (days)","PARAMN":1,"ADT":"2012-08-07","AVAL":17,"CNSR":0,"EVNTFL":"Y","CNSDTDSC":null,"TRT01A":"Xanomeline Low Dose","TRT01AN":2,"SAFFL":"Y","ITTFL":"Y","SITEID":"701","AGE":80,"AGEGR1":"65-80","SEX":"F","RACE":"WHITE","ARMCD":"Xan_Lo","TRTSDT":"2012-07-22","TRTEDT":"2013-01-20"},{"STUDYID":"CDISCPILOT01","USUBJID":"01-701-1203","DOMAIN":"ADTTE","PARAMCD":"TTDERM","PARAM":"Time to First Dermatological TEAE (days)","PARAMN":1,"ADT":"2013-08-03","AVAL":183,"CNSR":1,"EVNTFL":"N","CNSDTDSC":"LAST KNOWN ON-STUDY DATE","TRT01A":"Placebo","TRT01AN":1,"SAFFL":"Y","ITTFL":"Y","SITEID":"701","AGE":81,"AGEGR1":">80","SEX":"F","RACE":"BLACK OR AFRICAN AMERICAN","ARMCD":"Pbo","TRTSDT":"2013-02-02","TRTEDT":"2013-08-03"},{"STUDYID":"CDISCPILOT01","USUBJID":"01-701-1211","DOMAIN":"ADTTE","PARAMCD":"TTDERM","PARAM":"Time to First Dermatological TEAE (days)","PARAMN":1,"ADT":"2013-01-12","AVAL":59,"CNSR":1,"EVNTFL":"N","CNSDTDSC":"LAST KNOWN ON-STUDY DATE","TRT01A":"Xanomeline Low Dose","TRT01AN":2,"SAFFL":"Y","ITTFL":"Y","SITEID":"701","AGE":76,"AGEGR1":"65-80","SEX":"F","RACE":"WHITE","ARMCD":"Xan_Lo","TRTSDT":"2012-11-15","TRTEDT":"2013-01-12"},{"STUDYID":"CDISCPILOT01","USUBJID":"01-701-1234","DOMAIN":"ADTTE","PARAMCD":"TTDERM","PARAM":"Time to First Dermatological TEAE (days)","PARAMN":1,"ADT":"2013-09-22","AVAL":177,"CNSR":1,"EVNTFL":"N","CNSDTDSC":"LAST KNOWN ON-STUDY DATE","TRT01A":"Placebo","TRT01AN":1,"SAFFL":"Y","ITTFL":"Y","SITEID":"701","AGE":69,"AGEGR1":"65-80","SEX":"M","RACE":"WHITE","ARMCD":"Pbo","TRTSDT":"2013-03-30","TRTEDT":"2013-09-22"},{"STUDYID":"CDISCPILOT01","USUBJID":"01-701-1239","DOMAIN":"ADTTE","PARAMCD":"TTDERM","PARAM":"Time to First Dermatological TEAE (days)","PARAMN":1,"ADT":"2014-01-12","AVAL":2,"CNSR":0,"EVNTFL":"Y","CNSDTDSC":null,"TRT01A":"Xanomeline High Dose","TRT01AN":3,"SAFFL":"Y","ITTFL":"Y","SITEID":"701","AGE":56,"AGEGR1":"<65","SEX":"M","RACE":"WHITE","ARMCD":"Xan_Hi","TRTSDT":"2014-01-11","TRTEDT":"2014-07-10"},{"STUDYID":"CDISCPILOT01","USUBJID":"01-701-1275","DOMAIN":"ADTTE","PARAMCD":"TTDERM","PARAM":"Time to First Dermatological TEAE (days)","PARAMN":1,"ADT":"2014-02-24","AVAL":18,"CNSR":0,"EVNTFL":"Y","CNSDTDSC":null,"TRT01A":"Xanomeline High Dose","TRT01AN":3,"SAFFL":"Y","ITTFL":"Y","SITEID":"701","AGE":61,"AGEGR1":"<65","SEX":"M","RACE":"AMERICAN INDIAN OR ALASKA NATIVE","ARMCD":"Xan_Hi","TRTSDT":"2014-02-07","TRTEDT":"2014-05-31"},{"STUDYID":"CDISCPILOT01","USUBJID":"01-701-1287","DOMAIN":"ADTTE","PARAMCD":"TTDERM","PARAM":"Time to First Dermatological TEAE (days)","PARAMN":1,"ADT":"2014-07-26","AVAL":183,"CNSR":1,"EVNTFL":"N","CNSDTDSC":"LAST KNOWN ON-STUDY DATE","TRT01A":"Xanomeline High Dose","TRT01AN":3,"SAFFL":"Y","ITTFL":"Y","SITEID":"701","AGE":56,"AGEGR1":"<65","SEX":"F","RACE":"WHITE","ARMCD":"Xan_Hi","TRTSDT":"2014-01-25","TRTEDT":"2014-07-26"},{"STUDYID":"CDISCPILOT01","USUBJID":"01-701-1294","DOMAIN":"ADTTE","PARAMCD":"TTDERM","PARAM":"Time to First Dermatological TEAE (days)","PARAMN":1,"ADT":"2013-06-10","AVAL":79,"CNSR":0,"EVNTFL":"Y","CNSDTDSC":null,"TRT01A":"Xanomeline Low Dose","TRT01AN":2,"SAFFL":"Y","ITTFL":"Y","SITEID":"701","AGE":67,"AGEGR1":"65-80","SEX":"M","RACE":"WHITE","ARMCD":"Xan_Lo","TRTSDT":"2013-03-24","TRTEDT":"2013-06-14"},{"STUDYID":"CDISCPILOT01","USUBJID":"01-701-1302","DOMAIN":"ADTTE","PARAMCD":"TTDERM","PARAM":"Time to First Dermatological TEAE (days)","PARAMN":1,"ADT":"2013-08-30","AVAL":2,"CNSR":0,"EVNTFL":"Y","CNSDTDSC":null,"TRT01A":"Xanomeline High Dose","TRT01AN":3,"SAFFL":"Y","ITTFL":"Y","SITEID":"701","AGE":61,"AGEGR1":"<65","SEX":"M","RACE":"WHITE","ARMCD":"Xan_Hi","TRTSDT":"2013-08-29","TRTEDT":"2013-11-05"},{"STUDYID":"CDISCPILOT01","USUBJID":"01-701-1317","DOMAIN":"ADTTE","PARAMCD":"TTDERM","PARAM":"Time to First Dermatological TEAE (days)","PARAMN":1,"ADT":"2014-11-20","AVAL":183,"CNSR":1,"EVNTFL":"N","CNSDTDSC":"LAST KNOWN ON-STUDY DATE","TRT01A":"Xanomeline Low Dose","TRT01AN":2,"SAFFL":"Y","ITTFL":"Y","SITEID":"701","AGE":68,"AGEGR1":"65-80","SEX":"M","RACE":"WHITE","ARMCD":"Xan_Lo","TRTSDT":"2014-05-22","TRTEDT":"2014-11-20"},{"STUDYID":"CDISCPILOT01","USUBJID":"01-701-1324","DOMAIN":"ADTTE","PARAMCD":"TTDERM","PARAM":"Time to First Dermatological TEAE (days)","PARAMN":1,"ADT":"2013-04-02","AVAL":183,"CNSR":1,"EVNTFL":"N","CNSDTDSC":"LAST KNOWN ON-STUDY DATE","TRT01A":"Xanomeline Low Dose","TRT01AN":2,"SAFFL":"Y","ITTFL":"Y","SITEID":"701","AGE":79,"AGEGR1":"65-80","SEX":"M","RACE":"WHITE","ARMCD":"Xan_Lo","TRTSDT":"2012-10-02","TRTEDT":"2013-04-02"},{"STUDYID":"CDISCPILOT01","USUBJID":"01-701-1341","DOMAIN":"ADTTE","PARAMCD":"TTDERM","PARAM":"Time to First Dermatological TEAE (days)","PARAMN":1,"ADT":"2013-01-26","AVAL":22,"CNSR":1,"EVNTFL":"N","CNSDTDSC":"LAST KNOWN ON-STUDY DATE","TRT01A":"Xanomeline Low Dose","TRT01AN":2,"SAFFL":"Y","ITTFL":"Y","SITEID":"701","AGE":51,"AGEGR1":"<65","SEX":"M","RACE":"WHITE","ARMCD":"Xan_Lo","TRTSDT":"2013-01-05","TRTEDT":"2013-01-26"},{"STUDYID":"CDISCPILOT01","USUBJID":"01-701-1345","DOMAIN":"ADTTE","PARAMCD":"TTDERM","PARAM":"Time to First Dermatological TEAE (days)","PARAMN":1,"ADT":"2014-03-18","AVAL":162,"CNSR":1,"EVNTFL":"N","CNSDTDSC":"LAST KNOWN ON-STUDY DATE","TRT01A":"Placebo","TRT01AN":1,"SAFFL":"Y","ITTFL":"Y","SITEID":"701","AGE":63,"AGEGR1":"<65","SEX":"F","RACE":"WHITE","ARMCD":"Pbo","TRTSDT":"2013-10-08","TRTEDT":"2014-03-18"},{"STUDYID":"CDISCPILOT01","USUBJID":"01-701-1360","DOMAIN":"ADTTE","PARAMCD":"TTDERM","PARAM":"Time to First Dermatological TEAE (days)","PARAMN":1,"ADT":"2013-08-05","AVAL":6,"CNSR":1,"EVNTFL":"N","CNSDTDSC":"LAST KNOWN ON-STUDY DATE","TRT01A":"Xanomeline High Dose","TRT01AN":3,"SAFFL":"Y","ITTFL":"Y","SITEID":"701","AGE":67,"AGEGR1":"65-80","SEX":"M","RACE":"WHITE","ARMCD":"Xan_Hi","TRTSDT":"2013-07-31","TRTEDT":"2013-08-05"},{"STUDYID":"CDISCPILOT01","USUBJID":"01-701-1363","DOMAIN":"ADTTE","PARAMCD":"TTDERM","PARAM":"Time to First Dermatological TEAE (days)","PARAMN":1,"ADT":"2013-11-27","AVAL":182,"CNSR":1,"EVNTFL":"N","CNSDTDSC":"LAST KNOWN ON-STUDY DATE","TRT01A":"Placebo","TRT01AN":1,"SAFFL":"Y","ITTFL":"Y","SITEID":"701","AGE":81,"AGEGR1":">80","SEX":"F","RACE":"BLACK OR AFRICAN AMERICAN","ARMCD":"Pbo","TRTSDT":"2013-05-30","TRTEDT":"2013-11-27"},{"STUDYID":"CDISCPILOT01","USUBJID":"01-701-1383","DOMAIN":"ADTTE","PARAMCD":"TTDERM","PARAM":"Time to First Dermatological TEAE (days)","PARAMN":1,"ADT":"2013-08-06","AVAL":184,"CNSR":1,"EVNTFL":"N","CNSDTDSC":"LAST KNOWN ON-STUDY DATE","TRT01A":"Xanomeline High Dose","TRT01AN":3,"SAFFL":"Y","ITTFL":"Y","SITEID":"701","AGE":72,"AGEGR1":"65-80","SEX":"F","RACE":"WHITE","ARMCD":"Xan_Hi","TRTSDT":"2013-02-04","TRTEDT":"2013-08-06"},{"STUDYID":"CDISCPILOT01","USUBJID":"01-701-1387","DOMAIN":"ADTTE","PARAMCD":"TTDERM","PARAM":"Time to First Dermatological TEAE (days)","PARAMN":1,"ADT":"2014-03-18","AVAL":7,"CNSR":0,"EVNTFL":"Y","CNSDTDSC":null,"TRT01A":"Placebo","TRT01AN":1,"SAFFL":"Y","ITTFL":"Y","SITEID":"701","AGE":87,"AGEGR1":">80","SEX":"F","RACE":"WHITE","ARMCD":"Pbo","TRTSDT":"2014-03-12","TRTEDT":"2014-03-25"},{"STUDYID":"CDISCPILOT01","USUBJID":"01-701-1392","DOMAIN":"ADTTE","PARAMCD":"TTDERM","PARAM":"Time to First Dermatological TEAE (days)","PARAMN":1,"ADT":"2013-04-28","AVAL":183,"CNSR":1,"EVNTFL":"N","CNSDTDSC":"LAST KNOWN ON-STUDY DATE","TRT01A":"Placebo","TRT01AN":1,"SAFFL":"Y","ITTFL":"Y","SITEID":"701","AGE":78,"AGEGR1":"65-80","SEX":"M","RACE":"WHITE","ARMCD":"Pbo","TRTSDT":"2012-10-28","TRTEDT":"2013-04-28"},{"STUDYID":"CDISCPILOT01","USUBJID":"01-701-1415","DOMAIN":"ADTTE","PARAMCD":"TTDERM","PARAM":"Time to First Dermatological TEAE (days)","PARAMN":1,"ADT":"2014-03-24","AVAL":183,"CNSR":1,"EVNTFL":"N","CNSDTDSC":"LAST KNOWN ON-STUDY DATE","TRT01A":"Placebo","TRT01AN":1,"SAFFL":"Y","ITTFL":"Y","SITEID":"701","AGE":85,"AGEGR1":">80","SEX":"M","RACE":"WHITE","ARMCD":"Pbo","TRTSDT":"2013-09-23","TRTEDT":"2014-03-24"},{"STUDYID":"CDISCPILOT01","USUBJID":"01-701-1429","DOMAIN":"ADTTE","PARAMCD":"TTDERM","PARAM":"Time to First Dermatological TEAE (days)","PARAMN":1,"ADT":"2013-04-30","AVAL":43,"CNSR":1,"EVNTFL":"N","CNSDTDSC":"LAST KNOWN ON-STUDY DATE","TRT01A":"Xanomeline Low Dose","TRT01AN":2,"SAFFL":"Y","ITTFL":"Y","SITEID":"701","AGE":84,"AGEGR1":">80","SEX":"F","RACE":"WHITE","ARMCD":"Xan_Lo","TRTSDT":"2013-03-19","TRTEDT":"2013-04-30"},{"STUDYID":"CDISCPILOT01","USUBJID":"01-701-1440","DOMAIN":"ADTTE","PARAMCD":"TTDERM","PARAM":"Time to First Dermatological TEAE (days)","PARAMN":1,"ADT":"2014-02-05","AVAL":182,"CNSR":1,"EVNTFL":"N","CNSDTDSC":"LAST KNOWN ON-STUDY DATE","TRT01A":"Placebo","TRT01AN":1,"SAFFL":"Y","ITTFL":"Y","SITEID":"701","AGE":70,"AGEGR1":"65-80","SEX":"M","RACE":"WHITE","ARMCD":"Pbo","TRTSDT":"2013-08-08","TRTEDT":"2014-02-05"},{"STUDYID":"CDISCPILOT01","USUBJID":"01-701-1442","DOMAIN":"ADTTE","PARAMCD":"TTDERM","PARAM":"Time to First Dermatological TEAE (days)","PARAMN":1,"ADT":"2014-04-26","AVAL":183,"CNSR":1,"EVNTFL":"N","CNSDTDSC":"LAST KNOWN ON-STUDY DATE","TRT01A":"Xanomeline Low Dose","TRT01AN":2,"SAFFL":"Y","ITTFL":"Y","SITEID":"701","AGE":57,"AGEGR1":"<65","SEX":"F","RACE":"BLACK OR AFRICAN AMERICAN","ARMCD":"Xan_Lo","TRTSDT":"2013-10-26","TRTEDT":"2014-04-26"},{"STUDYID":"CDISCPILOT01","USUBJID":"01-701-1444","DOMAIN":"ADTTE","PARAMCD":"TTDERM","PARAM":"Time to First Dermatological TEAE (days)","PARAMN":1,"ADT":"2013-02-12","AVAL":39,"CNSR":1,"EVNTFL":"N","CNSDTDSC":"LAST KNOWN ON-STUDY DATE","TRT01A":"Xanomeline High Dose","TRT01AN":3,"SAFFL":"Y","ITTFL":"Y","SITEID":"701","AGE":63,"AGEGR1":"<65","SEX":"M","RACE":"WHITE","ARMCD":"Xan_Hi","TRTSDT":"2013-01-05","TRTEDT":"2013-02-12"},{"STUDYID":"CDISCPILOT01","USUBJID":"01-702-1082","DOMAIN":"ADTTE","PARAMCD":"TTDERM","PARAM":"Time to First Dermatological TEAE (days)","PARAMN":1,"ADT":"2013-10-12","AVAL":79,"CNSR":0,"EVNTFL":"Y","CNSDTDSC":null,"TRT01A":"Xanomeline Low Dose","TRT01AN":2,"SAFFL":"Y","ITTFL":"Y","SITEID":"702","AGE":84,"AGEGR1":">80","SEX":"F","RACE":"WHITE","ARMCD":"Xan_Lo","TRTSDT":"2013-07-26","TRTEDT":"2013-10-13"},{"STUDYID":"CDISCPILOT01","USUBJID":"01-703-1042","DOMAIN":"ADTTE","PARAMCD":"TTDERM","PARAM":"Time to First Dermatological TEAE (days)","PARAMN":1,"ADT":"2013-08-31","AVAL":183,"CNSR":1,"EVNTFL":"N","CNSDTDSC":"LAST KNOWN ON-STUDY DATE","TRT01A":"Placebo","TRT01AN":1,"SAFFL":"Y","ITTFL":"Y","SITEID":"703","AGE":64,"AGEGR1":"<65","SEX":"M","RACE":"WHITE","ARMCD":"Pbo","TRTSDT":"2013-03-02","TRTEDT":"2013-08-31"},{"STUDYID":"CDISCPILOT01","USUBJID":"01-703-1076","DOMAIN":"ADTTE","PARAMCD":"TTDERM","PARAM":"Time to First Dermatological TEAE (days)","PARAMN":1,"ADT":"2013-11-25","AVAL":32,"CNSR":0,"EVNTFL":"Y","CNSDTDSC":null,"TRT01A":"Xanomeline High Dose","TRT01AN":3,"SAFFL":"Y","ITTFL":"Y","SITEID":"703","AGE":69,"AGEGR1":"65-80","SEX":"M","RACE":"WHITE","ARMCD":"Xan_Hi","TRTSDT":"2013-10-25","TRTEDT":"2013-12-24"},{"STUDYID":"CDISCPILOT01","USUBJID":"01-703-1086","DOMAIN":"ADTTE","PARAMCD":"TTDERM","PARAM":"Time to First Dermatological TEAE (days)","PARAMN":1,"ADT":"2012-12-04","AVAL":94,"CNSR":1,"EVNTFL":"N","CNSDTDSC":"LAST KNOWN ON-STUDY DATE","TRT01A":"Xanomeline Low Dose","TRT01AN":2,"SAFFL":"Y","ITTFL":"Y","SITEID":"703","AGE":71,"AGEGR1":"65-80","SEX":"M","RACE":"WHITE","ARMCD":"Xan_Lo","TRTSDT":"2012-09-02","TRTEDT":"2012-12-04"},{"STUDYID":"CDISCPILOT01","USUBJID":"01-703-1096","DOMAIN":"ADTTE","PARAMCD":"TTDERM","PARAM":"Time to First Dermatological TEAE (days)","PARAMN":1,"ADT":"2013-03-16","AVAL":51,"CNSR":1,"EVNTFL":"N","CNSDTDSC":"LAST KNOWN ON-STUDY DATE","TRT01A":"Placebo","TRT01AN":1,"SAFFL":"Y","ITTFL":"Y","SITEID":"703","AGE":81,"AGEGR1":">80","SEX":"F","RACE":"WHITE","ARMCD":"Pbo","TRTSDT":"2013-01-25","TRTEDT":"2013-03-16"},{"STUDYID":"CDISCPILOT01","USUBJID":"01-703-1100","DOMAIN":"ADTTE","PARAMCD":"TTDERM","PARAM":"Time to First Dermatological TEAE (days)","PARAMN":1,"ADT":"2013-09-14","AVAL":186,"CNSR":1,"EVNTFL":"N","CNSDTDSC":"LAST KNOWN ON-STUDY DATE","TRT01A":"Placebo","TRT01AN":1,"SAFFL":"Y","ITTFL":"Y","SITEID":"703","AGE":84,"AGEGR1":">80","SEX":"F","RACE":"WHITE","ARMCD":"Pbo","TRTSDT":"2013-03-13","TRTEDT":"2013-09-14"},{"STUDYID":"CDISCPILOT01","USUBJID":"01-703-1119","DOMAIN":"ADTTE","PARAMCD":"TTDERM","PARAM":"Time to First Dermatological TEAE (days)","PARAMN":1,"ADT":"2013-05-04","AVAL":74,"CNSR":0,"EVNTFL":"Y","CNSDTDSC":null,"TRT01A":"Xanomeline Low Dose","TRT01AN":2,"SAFFL":"Y","ITTFL":"Y","SITEID":"703","AGE":81,"AGEGR1":">80","SEX":"F","RACE":"WHITE","ARMCD":"Xan_Lo","TRTSDT":"2013-02-20","TRTEDT":"2013-06-13"},{"STUDYID":"CDISCPILOT01","USUBJID":"01-703-1175","DOMAIN":"ADTTE","PARAMCD":"TTDERM","PARAM":"Time to First Dermatological TEAE (days)","PARAMN":1,"ADT":"2013-12-26","AVAL":7,"CNSR":1,"EVNTFL":"N","CNSDTDSC":"LAST KNOWN ON-STUDY DATE","TRT01A":"Placebo","TRT01AN":1,"SAFFL":"Y","ITTFL":"Y","SITEID":"703","AGE":75,"AGEGR1":"65-80","SEX":"M","RACE":"WHITE","ARMCD":"Pbo","TRTSDT":"2013-12-20","TRTEDT":"2013-12-26"},{"STUDYID":"CDISCPILOT01","USUBJID":"01-703-1182","DOMAIN":"ADTTE","PARAMCD":"TTDERM","PARAM":"Time to First Dermatological TEAE (days)","PARAMN":1,"ADT":"2013-12-11","AVAL":56,"CNSR":1,"EVNTFL":"N","CNSDTDSC":"LAST KNOWN ON-STUDY DATE","TRT01A":"Xanomeline Low Dose","TRT01AN":2,"SAFFL":"Y","ITTFL":"Y","SITEID":"703","AGE":84,"AGEGR1":">80","SEX":"M","RACE":"WHITE","ARMCD":"Xan_Lo","TRTSDT":"2013-10-17","TRTEDT":"2013-12-11"},{"STUDYID":"CDISCPILOT01","USUBJID":"01-703-1197","DOMAIN":"ADTTE","PARAMCD":"TTDERM","PARAM":"Time to First Dermatological TEAE (days)","PARAMN":1,"ADT":"2013-06-29","AVAL":14,"CNSR":1,"EVNTFL":"N","CNSDTDSC":"LAST KNOWN ON-STUDY DATE","TRT01A":"Xanomeline Low Dose","TRT01AN":2,"SAFFL":"Y","ITTFL":"Y","SITEID":"703","AGE":76,"AGEGR1":"65-80","SEX":"F","RACE":"BLACK OR AFRICAN AMERICAN","ARMCD":"Xan_Lo","TRTSDT":"2013-06-16","TRTEDT":"2013-06-29"},{"STUDYID":"CDISCPILOT01","USUBJID":"01-703-1210","DOMAIN":"ADTTE","PARAMCD":"TTDERM","PARAM":"Time to First Dermatological TEAE (days)","PARAMN":1,"ADT":"2013-09-06","AVAL":175,"CNSR":1,"EVNTFL":"N","CNSDTDSC":"LAST KNOWN ON-STUDY DATE","TRT01A":"Placebo","TRT01AN":1,"SAFFL":"Y","ITTFL":"Y","SITEID":"703","AGE":72,"AGEGR1":"65-80","SEX":"F","RACE":"WHITE","ARMCD":"Pbo","TRTSDT":"2013-03-16","TRTEDT":"2013-09-06"},{"STUDYID":"CDISCPILOT01","USUBJID":"01-703-1258","DOMAIN":"ADTTE","PARAMCD":"TTDERM","PARAM":"Time to First Dermatological TEAE (days)","PARAMN":1,"ADT":"2013-01-11","AVAL":176,"CNSR":1,"EVNTFL":"N","CNSDTDSC":"LAST KNOWN ON-STUDY DATE","TRT01A":"Xanomeline High Dose","TRT01AN":3,"SAFFL":"Y","ITTFL":"Y","SITEID":"703","AGE":78,"AGEGR1":"65-80","SEX":"F","RACE":"WHITE","ARMCD":"Xan_Hi","TRTSDT":"2012-07-20","TRTEDT":"2013-01-11"},{"STUDYID":"CDISCPILOT01","USUBJID":"01-703-1279","DOMAIN":"ADTTE","PARAMCD":"TTDERM","PARAM":"Time to First Dermatological TEAE (days)","PARAMN":1,"ADT":"2013-06-03","AVAL":22,"CNSR":1,"EVNTFL":"N","CNSDTDSC":"LAST KNOWN ON-STUDY DATE","TRT01A":"Xanomeline Low Dose","TRT01AN":2,"SAFFL":"Y","ITTFL":"Y","SITEID":"703","AGE":72,"AGEGR1":"65-80","SEX":"F","RACE":"WHITE","ARMCD":"Xan_Lo","TRTSDT":"2013-05-13","TRTEDT":"2013-06-03"},{"STUDYID":"CDISCPILOT01","USUBJID":"01-703-1295","DOMAIN":"ADTTE","PARAMCD":"TTDERM","PARAM":"Time to First Dermatological TEAE (days)","PARAMN":1,"ADT":"2014-04-19","AVAL":150,"CNSR":1,"EVNTFL":"N","CNSDTDSC":"LAST KNOWN ON-STUDY DATE","TRT01A":"Xanomeline High Dose","TRT01AN":3,"SAFFL":"Y","ITTFL":"Y","SITEID":"703","AGE":88,"AGEGR1":">80","SEX":"F","RACE":"WHITE","ARMCD":"Xan_Hi","TRTSDT":"2013-11-21","TRTEDT":"2014-04-19"},{"STUDYID":"CDISCPILOT01","USUBJID":"01-703-1299","DOMAIN":"ADTTE","PARAMCD":"TTDERM","PARAM":"Time to First Dermatological TEAE (days)","PARAMN":1,"ADT":"2013-03-13","AVAL":183,"CNSR":1,"EVNTFL":"N","CNSDTDSC":"LAST KNOWN ON-STUDY DATE","TRT01A":"Placebo","TRT01AN":1,"SAFFL":"Y","ITTFL":"Y","SITEID":"703","AGE":81,"AGEGR1":">80","SEX":"F","RACE":"WHITE","ARMCD":"Pbo","TRTSDT":"2012-09-12","TRTEDT":"2013-03-13"},{"STUDYID":"CDISCPILOT01","USUBJID":"01-703-1335","DOMAIN":"ADTTE","PARAMCD":"TTDERM","PARAM":"Time to First Dermatological TEAE (days)","PARAMN":1,"ADT":"2014-05-07","AVAL":52,"CNSR":1,"EVNTFL":"N","CNSDTDSC":"LAST KNOWN ON-STUDY DATE","TRT01A":"Xanomeline High Dose","TRT01AN":3,"SAFFL":"Y","ITTFL":"Y","SITEID":"703","AGE":67,"AGEGR1":"65-80","SEX":"F","RACE":"BLACK OR AFRICAN AMERICAN","ARMCD":"Xan_Hi","TRTSDT":"2014-03-17","TRTEDT":"2014-05-07"},{"STUDYID":"CDISCPILOT01","USUBJID":"01-703-1379","DOMAIN":"ADTTE","PARAMCD":"TTDERM","PARAM":"Time to First Dermatological TEAE (days)","PARAMN":1,"ADT":"2014-03-21","AVAL":181,"CNSR":1,"EVNTFL":"N","CNSDTDSC":"LAST KNOWN ON-STUDY DATE","TRT01A":"Xanomeline Low Dose","TRT01AN":2,"SAFFL":"Y","ITTFL":"Y","SITEID":"703","AGE":81,"AGEGR1":">80","SEX":"F","RACE":"BLACK OR AFRICAN AMERICAN","ARMCD":"Xan_Lo","TRTSDT":"2013-09-22","TRTEDT":"2014-03-21"},{"STUDYID":"CDISCPILOT01","USUBJID":"01-703-1403","DOMAIN":"ADTTE","PARAMCD":"TTDERM","PARAM":"Time to First Dermatological TEAE (days)","PARAMN":1,"ADT":"2012-12-13","AVAL":2,"CNSR":1,"EVNTFL":"N","CNSDTDSC":"LAST KNOWN ON-STUDY DATE","TRT01A":"Xanomeline High Dose","TRT01AN":3,"SAFFL":"Y","ITTFL":"Y","SITEID":"703","AGE":67,"AGEGR1":"65-80","SEX":"M","RACE":"WHITE","ARMCD":"Xan_Hi","TRTSDT":"2012-12-12","TRTEDT":"2012-12-13"},{"STUDYID":"CDISCPILOT01","USUBJID":"01-703-1439","DOMAIN":"ADTTE","PARAMCD":"TTDERM","PARAM":"Time to First Dermatological TEAE (days)","PARAMN":1,"ADT":"2014-09-11","AVAL":184,"CNSR":1,"EVNTFL":"N","CNSDTDSC":"LAST KNOWN ON-STUDY DATE","TRT01A":"Xanomeline High Dose","TRT01AN":3,"SAFFL":"Y","ITTFL":"Y","SITEID":"703","AGE":76,"AGEGR1":"65-80","SEX":"F","RACE":"WHITE","ARMCD":"Xan_Hi","TRTSDT":"2014-03-12","TRTEDT":"2014-09-11"},{"STUDYID":"CDISCPILOT01","USUBJID":"01-704-1008","DOMAIN":"ADTTE","PARAMCD":"TTDERM","PARAM":"Time to First Dermatological TEAE (days)","PARAMN":1,"ADT":"2013-01-30","AVAL":18,"CNSR":0,"EVNTFL":"Y","CNSDTDSC":null,"TRT01A":"Xanomeline High Dose","TRT01AN":3,"SAFFL":"Y","ITTFL":"Y","SITEID":"704","AGE":76,"AGEGR1":"65-80","SEX":"F","RACE":"WHITE","ARMCD":"Xan_Hi","TRTSDT":"2013-01-13","TRTEDT":"2013-02-21"},{"STUDYID":"CDISCPILOT01","USUBJID":"01-704-1009","DOMAIN":"ADTTE","PARAMCD":"TTDERM","PARAM":"Time to First Dermatological TEAE (days)","PARAMN":1,"ADT":"2013-09-14","AVAL":19,"CNSR":0,"EVNTFL":"Y","CNSDTDSC":null,"TRT01A":"Xanomeline Low Dose","TRT01AN":2,"SAFFL":"Y","ITTFL":"Y","SITEID":"704","AGE":83,"AGEGR1":">80","SEX":"M","RACE":"WHITE","ARMCD":"Xan_Lo","TRTSDT":"2013-08-27","TRTEDT":"2013-09-25"},{"STUDYID":"CDISCPILOT01","USUBJID":"01-704-1010","DOMAIN":"ADTTE","PARAMCD":"TTDERM","PARAM":"Time to First Dermatological TEAE (days)","PARAMN":1,"ADT":"2014-07-08","AVAL":138,"CNSR":1,"EVNTFL":"N","CNSDTDSC":"LAST KNOWN ON-STUDY DATE","TRT01A":"Placebo","TRT01AN":1,"SAFFL":"Y","ITTFL":"Y","SITEID":"704","AGE":80,"AGEGR1":"65-80","SEX":"M","RACE":"WHITE","ARMCD":"Pbo","TRTSDT":"2014-02-21","TRTEDT":"2014-07-08"},{"STUDYID":"CDISCPILOT01","USUBJID":"01-704-1017","DOMAIN":"ADTTE","PARAMCD":"TTDERM","PARAM":"Time to First Dermatological TEAE (days)","PARAMN":1,"ADT":"2013-11-05","AVAL":31,"CNSR":0,"EVNTFL":"Y","CNSDTDSC":null,"TRT01A":"Xanomeline High Dose","TRT01AN":3,"SAFFL":"Y","ITTFL":"Y","SITEID":"704","AGE":77,"AGEGR1":"65-80","SEX":"M","RACE":"WHITE","ARMCD":"Xan_Hi","TRTSDT":"2013-10-06","TRTEDT":"2013-11-18"},{"STUDYID":"CDISCPILOT01","USUBJID":"01-704-1025","DOMAIN":"ADTTE","PARAMCD":"TTDERM","PARAM":"Time to First Dermatological TEAE (days)","PARAMN":1,"ADT":"2013-10-24","AVAL":28,"CNSR":1,"EVNTFL":"N","CNSDTDSC":"LAST KNOWN ON-STUDY DATE","TRT01A":"Xanomeline Low Dose","TRT01AN":2,"SAFFL":"Y","ITTFL":"Y","SITEID":"704","AGE":81,"AGEGR1":">80","SEX":"F","RACE":"WHITE","ARMCD":"Xan_Lo","TRTSDT":"2013-09-27","TRTEDT":"2013-10-24"},{"STUDYID":"CDISCPILOT01","USUBJID":"01-704-1065","DOMAIN":"ADTTE","PARAMCD":"TTDERM","PARAM":"Time to First Dermatological TEAE (days)","PARAMN":1,"ADT":"2013-10-27","AVAL":4,"CNSR":0,"EVNTFL":"Y","CNSDTDSC":null,"TRT01A":"Xanomeline High Dose","TRT01AN":3,"SAFFL":"Y","ITTFL":"Y","SITEID":"704","AGE":75,"AGEGR1":"65-80","SEX":"M","RACE":"WHITE","ARMCD":"Xan_Hi","TRTSDT":"2013-10-24","TRTEDT":"2013-12-22"},{"STUDYID":"CDISCPILOT01","USUBJID":"01-704-1074","DOMAIN":"ADTTE","PARAMCD":"TTDERM","PARAM":"Time to First Dermatological TEAE (days)","PARAMN":1,"ADT":"2014-01-22","AVAL":1,"CNSR":0,"EVNTFL":"Y","CNSDTDSC":null,"TRT01A":"Xanomeline High Dose","TRT01AN":3,"SAFFL":"Y","ITTFL":"Y","SITEID":"704","AGE":80,"AGEGR1":"65-80","SEX":"F","RACE":"WHITE","ARMCD":"Xan_Hi","TRTSDT":"2014-01-22","TRTEDT":"2014-03-20"},{"STUDYID":"CDISCPILOT01","USUBJID":"01-704-1093","DOMAIN":"ADTTE","PARAMCD":"TTDERM","PARAM":"Time to First Dermatological TEAE (days)","PARAMN":1,"ADT":"2013-05-04","AVAL":51,"CNSR":0,"EVNTFL":"Y","CNSDTDSC":null,"TRT01A":"Xanomeline High Dose","TRT01AN":3,"SAFFL":"Y","ITTFL":"Y","SITEID":"704","AGE":79,"AGEGR1":"65-80","SEX":"M","RACE":"WHITE","ARMCD":"Xan_Hi","TRTSDT":"2013-03-15","TRTEDT":"2013-06-17"},{"STUDYID":"CDISCPILOT01","USUBJID":"01-704-1114","DOMAIN":"ADTTE","PARAMCD":"TTDERM","PARAM":"Time to First Dermatological TEAE (days)","PARAMN":1,"ADT":"2013-02-21","AVAL":30,"CNSR":0,"EVNTFL":"Y","CNSDTDSC":null,"TRT01A":"Xanomeline Low Dose","TRT01AN":2,"SAFFL":"Y","ITTFL":"Y","SITEID":"704","AGE":77,"AGEGR1":"65-80","SEX":"M","RACE":"WHITE","ARMCD":"Xan_Lo","TRTSDT":"2013-01-23","TRTEDT":"2013-07-07"},{"STUDYID":"CDISCPILOT01","USUBJID":"01-704-1120","DOMAIN":"ADTTE","PARAMCD":"TTDERM","PARAM":"Time to First Dermatological TEAE (days)","PARAMN":1,"ADT":"2013-12-23","AVAL":22,"CNSR":0,"EVNTFL":"Y","CNSDTDSC":null,"TRT01A":"Xanomeline Low Dose","TRT01AN":2,"SAFFL":"Y","ITTFL":"Y","SITEID":"704","AGE":71,"AGEGR1":"65-80","SEX":"F","RACE":"WHITE","ARMCD":"Xan_Lo","TRTSDT":"2013-12-02","TRTEDT":"2014-02-01"},{"STUDYID":"CDISCPILOT01","USUBJID":"01-704-1127","DOMAIN":"ADTTE","PARAMCD":"TTDERM","PARAM":"Time to First Dermatological TEAE (days)","PARAMN":1,"ADT":"2014-03-31","AVAL":181,"CNSR":1,"EVNTFL":"N","CNSDTDSC":"LAST KNOWN ON-STUDY DATE","TRT01A":"Placebo","TRT01AN":1,"SAFFL":"Y","ITTFL":"Y","SITEID":"704","AGE":84,"AGEGR1":">80","SEX":"F","RACE":"WHITE","ARMCD":"Pbo","TRTSDT":"2013-10-02","TRTEDT":"2014-03-31"},{"STUDYID":"CDISCPILOT01","USUBJID":"01-704-1135","DOMAIN":"ADTTE","PARAMCD":"TTDERM","PARAM":"Time to First Dermatological TEAE (days)","PARAMN":1,"ADT":"2013-12-08","AVAL":39,"CNSR":0,"EVNTFL":"Y","CNSDTDSC":null,"TRT01A":"Xanomeline Low Dose","TRT01AN":2,"SAFFL":"Y","ITTFL":"Y","SITEID":"704","AGE":74,"AGEGR1":"65-80","SEX":"F","RACE":"WHITE","ARMCD":"Xan_Lo","TRTSDT":"2013-10-31","TRTEDT":"2014-05-16"},{"STUDYID":"CDISCPILOT01","USUBJID":"01-704-1164","DOMAIN":"ADTTE","PARAMCD":"TTDERM","PARAM":"Time to First Dermatological TEAE (days)","PARAMN":1,"ADT":"2013-04-04","AVAL":198,"CNSR":1,"EVNTFL":"N","CNSDTDSC":"LAST KNOWN ON-STUDY DATE","TRT01A":"Placebo","TRT01AN":1,"SAFFL":"Y","ITTFL":"Y","SITEID":"704","AGE":67,"AGEGR1":"65-80","SEX":"F","RACE":"WHITE","ARMCD":"Pbo","TRTSDT":"2012-09-19","TRTEDT":"2013-04-04"},{"STUDYID":"CDISCPILOT01","USUBJID":"01-704-1218","DOMAIN":"ADTTE","PARAMCD":"TTDERM","PARAM":"Time to First Dermatological TEAE (days)","PARAMN":1,"ADT":"2013-05-27","AVAL":190,"CNSR":1,"EVNTFL":"N","CNSDTDSC":"LAST KNOWN ON-STUDY DATE","TRT01A":"Xanomeline Low Dose","TRT01AN":2,"SAFFL":"Y","ITTFL":"Y","SITEID":"704","AGE":81,"AGEGR1":">80","SEX":"F","RACE":"WHITE","ARMCD":"Xan_Lo","TRTSDT":"2012-11-19","TRTEDT":"2013-05-27"},{"STUDYID":"CDISCPILOT01","USUBJID":"01-704-1233","DOMAIN":"ADTTE","PARAMCD":"TTDERM","PARAM":"Time to First Dermatological TEAE (days)","PARAMN":1,"ADT":"2013-04-04","AVAL":15,"CNSR":1,"EVNTFL":"N","CNSDTDSC":"LAST KNOWN ON-STUDY DATE","TRT01A":"Placebo","TRT01AN":1,"SAFFL":"Y","ITTFL":"Y","SITEID":"704","AGE":87,"AGEGR1":">80","SEX":"F","RACE":"WHITE","ARMCD":"Pbo","TRTSDT":"2013-03-21","TRTEDT":"2013-04-04"},{"STUDYID":"CDISCPILOT01","USUBJID":"01-704-1241","DOMAIN":"ADTTE","PARAMCD":"TTDERM","PARAM":"Time to First Dermatological TEAE (days)","PARAMN":1,"ADT":"2013-10-09","AVAL":46,"CNSR":1,"EVNTFL":"N","CNSDTDSC":"LAST KNOWN ON-STUDY DATE","TRT01A":"Xanomeline High Dose","TRT01AN":3,"SAFFL":"Y","ITTFL":"Y","SITEID":"704","AGE":86,"AGEGR1":">80","SEX":"M","RACE":"WHITE","ARMCD":"Xan_Hi","TRTSDT":"2013-08-25","TRTEDT":"2013-10-09"},{"STUDYID":"CDISCPILOT01","USUBJID":"01-704-1260","DOMAIN":"ADTTE","PARAMCD":"TTDERM","PARAM":"Time to First Dermatological TEAE (days)","PARAMN":1,"ADT":"2012-11-04","AVAL":67,"CNSR":1,"EVNTFL":"N","CNSDTDSC":"LAST KNOWN ON-STUDY DATE","TRT01A":"Placebo","TRT01AN":1,"SAFFL":"Y","ITTFL":"Y","SITEID":"704","AGE":71,"AGEGR1":"65-80","SEX":"F","RACE":"WHITE","ARMCD":"Pbo","TRTSDT":"2012-08-30","TRTEDT":"2012-11-04"},{"STUDYID":"CDISCPILOT01","USUBJID":"01-704-1266","DOMAIN":"ADTTE","PARAMCD":"TTDERM","PARAM":"Time to First Dermatological TEAE (days)","PARAMN":1,"ADT":"2013-10-17","AVAL":5,"CNSR":0,"EVNTFL":"Y","CNSDTDSC":null,"TRT01A":"Xanomeline High Dose","TRT01AN":3,"SAFFL":"Y","ITTFL":"Y","SITEID":"704","AGE":82,"AGEGR1":">80","SEX":"M","RACE":"WHITE","ARMCD":"Xan_Hi","TRTSDT":"2013-10-13","TRTEDT":"2013-12-06"},{"STUDYID":"CDISCPILOT01","USUBJID":"01-704-1323","DOMAIN":"ADTTE","PARAMCD":"TTDERM","PARAM":"Time to First Dermatological TEAE (days)","PARAMN":1,"ADT":"2013-08-04","AVAL":28,"CNSR":0,"EVNTFL":"Y","CNSDTDSC":null,"TRT01A":"Xanomeline Low Dose","TRT01AN":2,"SAFFL":"Y","ITTFL":"Y","SITEID":"704","AGE":68,"AGEGR1":"65-80","SEX":"F","RACE":"WHITE","ARMCD":"Xan_Lo","TRTSDT":"2013-07-08","TRTEDT":"2013-08-05"},{"STUDYID":"CDISCPILOT01","USUBJID":"01-704-1325","DOMAIN":"ADTTE","PARAMCD":"TTDERM","PARAM":"Time to First Dermatological TEAE (days)","PARAMN":1,"ADT":"2014-05-23","AVAL":31,"CNSR":0,"EVNTFL":"Y","CNSDTDSC":null,"TRT01A":"Xanomeline Low Dose","TRT01AN":2,"SAFFL":"Y","ITTFL":"Y","SITEID":"704","AGE":81,"AGEGR1":">80","SEX":"M","RACE":"WHITE","ARMCD":"Xan_Lo","TRTSDT":"2014-04-23","TRTEDT":"2014-07-04"},{"STUDYID":"CDISCPILOT01","USUBJID":"01-704-1332","DOMAIN":"ADTTE","PARAMCD":"TTDERM","PARAM":"Time to First Dermatological TEAE (days)","PARAMN":1,"ADT":"2013-12-10","AVAL":2,"CNSR":0,"EVNTFL":"Y","CNSDTDSC":null,"TRT01A":"Xanomeline High Dose","TRT01AN":3,"SAFFL":"Y","ITTFL":"Y","SITEID":"704","AGE":80,"AGEGR1":"65-80","SEX":"M","RACE":"WHITE","ARMCD":"Xan_Hi","TRTSDT":"2013-12-09","TRTEDT":"2014-02-14"},{"STUDYID":"CDISCPILOT01","USUBJID":"01-704-1351","DOMAIN":"ADTTE","PARAMCD":"TTDERM","PARAM":"Time to First Dermatological TEAE (days)","PARAMN":1,"ADT":"2014-04-18","AVAL":189,"CNSR":1,"EVNTFL":"N","CNSDTDSC":"LAST KNOWN ON-STUDY DATE","TRT01A":"Placebo","TRT01AN":1,"SAFFL":"Y","ITTFL":"Y","SITEID":"704","AGE":70,"AGEGR1":"65-80","SEX":"M","RACE":"WHITE","ARMCD":"Pbo","TRTSDT":"2013-10-12","TRTEDT":"2014-04-18"},{"STUDYID":"CDISCPILOT01","USUBJID":"01-704-1388","DOMAIN":"ADTTE","PARAMCD":"TTDERM","PARAM":"Time to First Dermatological TEAE (days)","PARAMN":1,"ADT":"2013-06-11","AVAL":187,"CNSR":1,"EVNTFL":"N","CNSDTDSC":"LAST KNOWN ON-STUDY DATE","TRT01A":"Placebo","TRT01AN":1,"SAFFL":"Y","ITTFL":"Y","SITEID":"704","AGE":81,"AGEGR1":">80","SEX":"M","RACE":"WHITE","ARMCD":"Pbo","TRTSDT":"2012-12-07","TRTEDT":"2013-06-11"},{"STUDYID":"CDISCPILOT01","USUBJID":"01-704-1435","DOMAIN":"ADTTE","PARAMCD":"TTDERM","PARAM":"Time to First Dermatological TEAE (days)","PARAMN":1,"ADT":"2013-01-09","AVAL":54,"CNSR":1,"EVNTFL":"N","CNSDTDSC":"LAST KNOWN ON-STUDY DATE","TRT01A":"Placebo","TRT01AN":1,"SAFFL":"Y","ITTFL":"Y","SITEID":"704","AGE":74,"AGEGR1":"65-80","SEX":"M","RACE":"WHITE","ARMCD":"Pbo","TRTSDT":"2012-11-17","TRTEDT":"2013-01-09"},{"STUDYID":"CDISCPILOT01","USUBJID":"01-704-1445","DOMAIN":"ADTTE","PARAMCD":"TTDERM","PARAM":"Time to First Dermatological TEAE (days)","PARAMN":1,"ADT":"2014-11-01","AVAL":175,"CNSR":1,"EVNTFL":"N","CNSDTDSC":"LAST KNOWN ON-STUDY DATE","TRT01A":"Placebo","TRT01AN":1,"SAFFL":"Y","ITTFL":"Y","SITEID":"704","AGE":75,"AGEGR1":"65-80","SEX":"M","RACE":"WHITE","ARMCD":"Pbo","TRTSDT":"2014-05-11","TRTEDT":"2014-11-01"},{"STUDYID":"CDISCPILOT01","USUBJID":"01-705-1018","DOMAIN":"ADTTE","PARAMCD":"TTDERM","PARAM":"Time to First Dermatological TEAE (days)","PARAMN":1,"ADT":null,"AVAL":1,"CNSR":1,"EVNTFL":"N","CNSDTDSC":"LAST KNOWN ON-STUDY DATE","TRT01A":"Placebo","TRT01AN":1,"SAFFL":"Y","ITTFL":"Y","SITEID":"705","AGE":69,"AGEGR1":"65-80","SEX":"F","RACE":"WHITE","ARMCD":"Pbo","TRTSDT":"2013-07-05","TRTEDT":null},{"STUDYID":"CDISCPILOT01","USUBJID":"01-705-1031","DOMAIN":"ADTTE","PARAMCD":"TTDERM","PARAM":"Time to First Dermatological TEAE (days)","PARAMN":1,"ADT":"2013-12-25","AVAL":29,"CNSR":0,"EVNTFL":"Y","CNSDTDSC":null,"TRT01A":"Xanomeline Low Dose","TRT01AN":2,"SAFFL":"Y","ITTFL":"Y","SITEID":"705","AGE":56,"AGEGR1":"<65","SEX":"F","RACE":"WHITE","ARMCD":"Xan_Lo","TRTSDT":"2013-11-27","TRTEDT":"2013-12-18"},{"STUDYID":"CDISCPILOT01","USUBJID":"01-705-1059","DOMAIN":"ADTTE","PARAMCD":"TTDERM","PARAM":"Time to First Dermatological TEAE (days)","PARAMN":1,"ADT":"2013-11-02","AVAL":90,"CNSR":0,"EVNTFL":"Y","CNSDTDSC":null,"TRT01A":"Placebo","TRT01AN":1,"SAFFL":"Y","ITTFL":"Y","SITEID":"705","AGE":66,"AGEGR1":"65-80","SEX":"F","RACE":"WHITE","ARMCD":"Pbo","TRTSDT":"2013-08-05","TRTEDT":"2013-12-05"},{"STUDYID":"CDISCPILOT01","USUBJID":"01-705-1186","DOMAIN":"ADTTE","PARAMCD":"TTDERM","PARAM":"Time to First Dermatological TEAE (days)","PARAMN":1,"ADT":"2014-01-26","AVAL":19,"CNSR":1,"EVNTFL":"N","CNSDTDSC":"LAST KNOWN ON-STUDY DATE","TRT01A":"Placebo","TRT01AN":1,"SAFFL":"Y","ITTFL":"Y","SITEID":"705","AGE":84,"AGEGR1":">80","SEX":"F","RACE":"WHITE","ARMCD":"Pbo","TRTSDT":"2014-01-08","TRTEDT":"2014-01-26"},{"STUDYID":"CDISCPILOT01","USUBJID":"01-705-1199","DOMAIN":"ADTTE","PARAMCD":"TTDERM","PARAM":"Time to First Dermatological TEAE (days)","PARAMN":1,"ADT":"2013-09-28","AVAL":13,"CNSR":1,"EVNTFL":"N","CNSDTDSC":"LAST KNOWN ON-STUDY DATE","TRT01A":"Xanomeline Low Dose","TRT01AN":2,"SAFFL":"Y","ITTFL":"Y","SITEID":"705","AGE":87,"AGEGR1":">80","SEX":"M","RACE":"WHITE","ARMCD":"Xan_Lo","TRTSDT":"2013-09-16","TRTEDT":"2013-09-28"},{"STUDYID":"CDISCPILOT01","USUBJID":"01-705-1280","DOMAIN":"ADTTE","PARAMCD":"TTDERM","PARAM":"Time to First Dermatological TEAE (days)","PARAMN":1,"ADT":"2014-04-20","AVAL":94,"CNSR":0,"EVNTFL":"Y","CNSDTDSC":null,"TRT01A":"Xanomeline High Dose","TRT01AN":3,"SAFFL":"Y","ITTFL":"Y","SITEID":"705","AGE":56,"AGEGR1":"<65","SEX":"F","RACE":"WHITE","ARMCD":"Xan_Hi","TRTSDT":"2014-01-17","TRTEDT":"2014-07-25"},{"STUDYID":"CDISCPILOT01","USUBJID":"01-705-1281","DOMAIN":"ADTTE","PARAMCD":"TTDERM","PARAM":"Time to First Dermatological TEAE (days)","PARAMN":1,"ADT":"2014-01-30","AVAL":64,"CNSR":0,"EVNTFL":"Y","CNSDTDSC":null,"TRT01A":"Xanomeline High Dose","TRT01AN":3,"SAFFL":"Y","ITTFL":"Y","SITEID":"705","AGE":73,"AGEGR1":"65-80","SEX":"F","RACE":"BLACK OR AFRICAN AMERICAN","ARMCD":"Xan_Hi","TRTSDT":"2013-11-28","TRTEDT":"2014-02-27"},{"STUDYID":"CDISCPILOT01","USUBJID":"01-705-1282","DOMAIN":"ADTTE","PARAMCD":"TTDERM","PARAM":"Time to First Dermatological TEAE (days)","PARAMN":1,"ADT":"2013-06-24","AVAL":181,"CNSR":1,"EVNTFL":"N","CNSDTDSC":"LAST KNOWN ON-STUDY DATE","TRT01A":"Placebo","TRT01AN":1,"SAFFL":"Y","ITTFL":"Y","SITEID":"705","AGE":70,"AGEGR1":"65-80","SEX":"F","RACE":"BLACK OR AFRICAN AMERICAN","ARMCD":"Pbo","TRTSDT":"2012-12-26","TRTEDT":"2013-06-24"},{"STUDYID":"CDISCPILOT01","USUBJID":"01-705-1292","DOMAIN":"ADTTE","PARAMCD":"TTDERM","PARAM":"Time to First Dermatological TEAE (days)","PARAMN":1,"ADT":"2013-10-28","AVAL":15,"CNSR":0,"EVNTFL":"Y","CNSDTDSC":null,"TRT01A":"Xanomeline Low Dose","TRT01AN":2,"SAFFL":"Y","ITTFL":"Y","SITEID":"705","AGE":60,"AGEGR1":"<65","SEX":"F","RACE":"BLACK OR AFRICAN AMERICAN","ARMCD":"Xan_Lo","TRTSDT":"2013-10-14","TRTEDT":"2014-05-13"},{"STUDYID":"CDISCPILOT01","USUBJID":"01-705-1303","DOMAIN":"ADTTE","PARAMCD":"TTDERM","PARAM":"Time to First Dermatological TEAE (days)","PARAMN":1,"ADT":"2014-02-05","AVAL":52,"CNSR":0,"EVNTFL":"Y","CNSDTDSC":null,"TRT01A":"Xanomeline High Dose","TRT01AN":3,"SAFFL":"Y","ITTFL":"Y","SITEID":"705","AGE":72,"AGEGR1":"65-80","SEX":"M","RACE":"WHITE","ARMCD":"Xan_Hi","TRTSDT":"2013-12-16","TRTEDT":"2013-12-30"},{"STUDYID":"CDISCPILOT01","USUBJID":"01-705-1310","DOMAIN":"ADTTE","PARAMCD":"TTDERM","PARAM":"Time to First Dermatological TEAE (days)","PARAMN":1,"ADT":"2013-11-14","AVAL":13,"CNSR":0,"EVNTFL":"Y","CNSDTDSC":null,"TRT01A":"Xanomeline High Dose","TRT01AN":3,"SAFFL":"Y","ITTFL":"Y","SITEID":"705","AGE":74,"AGEGR1":"65-80","SEX":"F","RACE":"WHITE","ARMCD":"Xan_Hi","TRTSDT":"2013-11-02","TRTEDT":"2014-01-23"},{"STUDYID":"CDISCPILOT01","USUBJID":"01-705-1349","DOMAIN":"ADTTE","PARAMCD":"TTDERM","PARAM":"Time to First Dermatological TEAE (days)","PARAMN":1,"ADT":"2013-09-08","AVAL":183,"CNSR":1,"EVNTFL":"N","CNSDTDSC":"LAST KNOWN ON-STUDY DATE","TRT01A":"Placebo","TRT01AN":1,"SAFFL":"Y","ITTFL":"Y","SITEID":"705","AGE":86,"AGEGR1":">80","SEX":"F","RACE":"WHITE","ARMCD":"Pbo","TRTSDT":"2013-03-10","TRTEDT":"2013-09-08"},{"STUDYID":"CDISCPILOT01","USUBJID":"01-705-1377","DOMAIN":"ADTTE","PARAMCD":"TTDERM","PARAM":"Time to First Dermatological TEAE (days)","PARAMN":1,"ADT":"2014-01-25","AVAL":22,"CNSR":1,"EVNTFL":"N","CNSDTDSC":"LAST KNOWN ON-STUDY DATE","TRT01A":"Xanomeline High Dose","TRT01AN":3,"SAFFL":"Y","ITTFL":"Y","SITEID":"705","AGE":63,"AGEGR1":"<65","SEX":"F","RACE":"BLACK OR AFRICAN AMERICAN","ARMCD":"Xan_Hi","TRTSDT":"2014-01-04","TRTEDT":"2014-01-25"},{"STUDYID":"CDISCPILOT01","USUBJID":"01-705-1382","DOMAIN":"ADTTE","PARAMCD":"TTDERM","PARAM":"Time to First Dermatological TEAE (days)","PARAMN":1,"ADT":null,"AVAL":1,"CNSR":1,"EVNTFL":"N","CNSDTDSC":"LAST KNOWN ON-STUDY DATE","TRT01A":"Xanomeline High Dose","TRT01AN":3,"SAFFL":"Y","ITTFL":"Y","SITEID":"705","AGE":82,"AGEGR1":">80","SEX":"M","RACE":"WHITE","ARMCD":"Xan_Hi","TRTSDT":"2013-05-13","TRTEDT":null},{"STUDYID":"CDISCPILOT01","USUBJID":"01-705-1393","DOMAIN":"ADTTE","PARAMCD":"TTDERM","PARAM":"Time to First Dermatological TEAE (days)","PARAMN":1,"ADT":"2013-02-01","AVAL":148,"CNSR":1,"EVNTFL":"N","CNSDTDSC":"LAST KNOWN ON-STUDY DATE","TRT01A":"Xanomeline Low Dose","TRT01AN":2,"SAFFL":"Y","ITTFL":"Y","SITEID":"705","AGE":84,"AGEGR1":">80","SEX":"F","RACE":"WHITE","ARMCD":"Xan_Lo","TRTSDT":"2012-09-07","TRTEDT":"2013-02-01"},{"STUDYID":"CDISCPILOT01","USUBJID":"01-705-1431","DOMAIN":"ADTTE","PARAMCD":"TTDERM","PARAM":"Time to First Dermatological TEAE (days)","PARAMN":1,"ADT":"2013-12-19","AVAL":180,"CNSR":1,"EVNTFL":"N","CNSDTDSC":"LAST KNOWN ON-STUDY DATE","TRT01A":"Xanomeline Low Dose","TRT01AN":2,"SAFFL":"Y","ITTFL":"Y","SITEID":"705","AGE":68,"AGEGR1":"65-80","SEX":"F","RACE":"WHITE","ARMCD":"Xan_Lo","TRTSDT":"2013-06-23","TRTEDT":"2013-12-19"},{"STUDYID":"CDISCPILOT01","USUBJID":"01-706-1041","DOMAIN":"ADTTE","PARAMCD":"TTDERM","PARAM":"Time to First Dermatological TEAE (days)","PARAMN":1,"ADT":"2014-03-04","AVAL":64,"CNSR":0,"EVNTFL":"Y","CNSDTDSC":null,"TRT01A":"Placebo","TRT01AN":1,"SAFFL":"Y","ITTFL":"Y","SITEID":"706","AGE":64,"AGEGR1":"<65","SEX":"F","RACE":"BLACK OR AFRICAN AMERICAN","ARMCD":"Pbo","TRTSDT":"2013-12-31","TRTEDT":"2014-07-28"},{"STUDYID":"CDISCPILOT01","USUBJID":"01-706-1049","DOMAIN":"ADTTE","PARAMCD":"TTDERM","PARAM":"Time to First Dermatological TEAE (days)","PARAMN":1,"ADT":"2013-06-18","AVAL":36,"CNSR":1,"EVNTFL":"N","CNSDTDSC":"LAST KNOWN ON-STUDY DATE","TRT01A":"Xanomeline High Dose","TRT01AN":3,"SAFFL":"Y","ITTFL":"Y","SITEID":"706","AGE":60,"AGEGR1":"<65","SEX":"F","RACE":"WHITE","ARMCD":"Xan_Hi","TRTSDT":"2013-05-14","TRTEDT":"2013-06-18"},{"STUDYID":"CDISCPILOT01","USUBJID":"01-706-1384","DOMAIN":"ADTTE","PARAMCD":"TTDERM","PARAM":"Time to First Dermatological TEAE (days)","PARAMN":1,"ADT":"2012-09-15","AVAL":1,"CNSR":0,"EVNTFL":"Y","CNSDTDSC":null,"TRT01A":"Xanomeline Low Dose","TRT01AN":2,"SAFFL":"Y","ITTFL":"Y","SITEID":"706","AGE":74,"AGEGR1":"65-80","SEX":"F","RACE":"WHITE","ARMCD":"Xan_Lo","TRTSDT":"2012-09-15","TRTEDT":"2012-09-24"},{"STUDYID":"CDISCPILOT01","USUBJID":"01-707-1037","DOMAIN":"ADTTE","PARAMCD":"TTDERM","PARAM":"Time to First Dermatological TEAE (days)","PARAMN":1,"ADT":"2013-12-24","AVAL":5,"CNSR":1,"EVNTFL":"N","CNSDTDSC":"LAST KNOWN ON-STUDY DATE","TRT01A":"Xanomeline Low Dose","TRT01AN":2,"SAFFL":"Y","ITTFL":"Y","SITEID":"707","AGE":72,"AGEGR1":"65-80","SEX":"F","RACE":"WHITE","ARMCD":"Xan_Lo","TRTSDT":"2013-12-20","TRTEDT":"2013-12-24"},{"STUDYID":"CDISCPILOT01","USUBJID":"01-707-1206","DOMAIN":"ADTTE","PARAMCD":"TTDERM","PARAM":"Time to First Dermatological TEAE (days)","PARAMN":1,"ADT":"2014-04-26","AVAL":181,"CNSR":1,"EVNTFL":"N","CNSDTDSC":"LAST KNOWN ON-STUDY DATE","TRT01A":"Placebo","TRT01AN":1,"SAFFL":"Y","ITTFL":"Y","SITEID":"707","AGE":65,"AGEGR1":"65-80","SEX":"M","RACE":"WHITE","ARMCD":"Pbo","TRTSDT":"2013-10-28","TRTEDT":"2014-04-26"},{"STUDYID":"CDISCPILOT01","USUBJID":"01-708-1019","DOMAIN":"ADTTE","PARAMCD":"TTDERM","PARAM":"Time to First Dermatological TEAE (days)","PARAMN":1,"ADT":"2014-01-01","AVAL":13,"CNSR":1,"EVNTFL":"N","CNSDTDSC":"LAST KNOWN ON-STUDY DATE","TRT01A":"Xanomeline Low Dose","TRT01AN":2,"SAFFL":"Y","ITTFL":"Y","SITEID":"708","AGE":68,"AGEGR1":"65-80","SEX":"M","RACE":"WHITE","ARMCD":"Xan_Lo","TRTSDT":"2013-12-20","TRTEDT":"2014-01-01"},{"STUDYID":"CDISCPILOT01","USUBJID":"01-708-1032","DOMAIN":"ADTTE","PARAMCD":"TTDERM","PARAM":"Time to First Dermatological TEAE (days)","PARAMN":1,"ADT":"2013-03-01","AVAL":21,"CNSR":1,"EVNTFL":"N","CNSDTDSC":"LAST KNOWN ON-STUDY DATE","TRT01A":"Xanomeline Low Dose","TRT01AN":2,"SAFFL":"Y","ITTFL":"Y","SITEID":"708","AGE":62,"AGEGR1":"<65","SEX":"M","RACE":"WHITE","ARMCD":"Xan_Lo","TRTSDT":"2013-02-09","TRTEDT":"2013-03-01"},{"STUDYID":"CDISCPILOT01","USUBJID":"01-708-1084","DOMAIN":"ADTTE","PARAMCD":"TTDERM","PARAM":"Time to First Dermatological TEAE (days)","PARAMN":1,"ADT":"2013-11-11","AVAL":187,"CNSR":1,"EVNTFL":"N","CNSDTDSC":"LAST KNOWN ON-STUDY DATE","TRT01A":"Xanomeline Low Dose","TRT01AN":2,"SAFFL":"Y","ITTFL":"Y","SITEID":"708","AGE":73,"AGEGR1":"65-80","SEX":"F","RACE":"WHITE","ARMCD":"Xan_Lo","TRTSDT":"2013-05-09","TRTEDT":"2013-11-11"},{"STUDYID":"CDISCPILOT01","USUBJID":"01-708-1087","DOMAIN":"ADTTE","PARAMCD":"TTDERM","PARAM":"Time to First Dermatological TEAE (days)","PARAMN":1,"ADT":"2013-04-28","AVAL":189,"CNSR":1,"EVNTFL":"N","CNSDTDSC":"LAST KNOWN ON-STUDY DATE","TRT01A":"Placebo","TRT01AN":1,"SAFFL":"Y","ITTFL":"Y","SITEID":"708","AGE":74,"AGEGR1":"65-80","SEX":"F","RACE":"WHITE","ARMCD":"Pbo","TRTSDT":"2012-10-22","TRTEDT":"2013-04-28"},{"STUDYID":"CDISCPILOT01","USUBJID":"01-708-1158","DOMAIN":"ADTTE","PARAMCD":"TTDERM","PARAM":"Time to First Dermatological TEAE (days)","PARAMN":1,"ADT":"2014-03-22","AVAL":43,"CNSR":0,"EVNTFL":"Y","CNSDTDSC":null,"TRT01A":"Placebo","TRT01AN":1,"SAFFL":"Y","ITTFL":"Y","SITEID":"708","AGE":81,"AGEGR1":">80","SEX":"F","RACE":"WHITE","ARMCD":"Pbo","TRTSDT":"2014-02-08","TRTEDT":"2014-03-21"},{"STUDYID":"CDISCPILOT01","USUBJID":"01-708-1171","DOMAIN":"ADTTE","PARAMCD":"TTDERM","PARAM":"Time to First Dermatological TEAE (days)","PARAMN":1,"ADT":"2013-06-04","AVAL":181,"CNSR":1,"EVNTFL":"N","CNSDTDSC":"LAST KNOWN ON-STUDY DATE","TRT01A":"Placebo","TRT01AN":1,"SAFFL":"Y","ITTFL":"Y","SITEID":"708","AGE":77,"AGEGR1":"65-80","SEX":"F","RACE":"WHITE","ARMCD":"Pbo","TRTSDT":"2012-12-06","TRTEDT":"2013-06-04"},{"STUDYID":"CDISCPILOT01","USUBJID":"01-708-1178","DOMAIN":"ADTTE","PARAMCD":"TTDERM","PARAM":"Time to First Dermatological TEAE (days)","PARAMN":1,"ADT":"2014-04-06","AVAL":99,"CNSR":1,"EVNTFL":"N","CNSDTDSC":"LAST KNOWN ON-STUDY DATE","TRT01A":"Xanomeline High Dose","TRT01AN":3,"SAFFL":"Y","ITTFL":"Y","SITEID":"708","AGE":77,"AGEGR1":"65-80","SEX":"F","RACE":"BLACK OR AFRICAN AMERICAN","ARMCD":"Xan_Hi","TRTSDT":"2013-12-29","TRTEDT":"2014-04-06"},{"STUDYID":"CDISCPILOT01","USUBJID":"01-708-1213","DOMAIN":"ADTTE","PARAMCD":"TTDERM","PARAM":"Time to First Dermatological TEAE (days)","PARAMN":1,"ADT":"2013-02-22","AVAL":14,"CNSR":1,"EVNTFL":"N","CNSDTDSC":"LAST KNOWN ON-STUDY DATE","TRT01A":"Xanomeline High Dose","TRT01AN":3,"SAFFL":"Y","ITTFL":"Y","SITEID":"708","AGE":76,"AGEGR1":"65-80","SEX":"F","RACE":"WHITE","ARMCD":"Xan_Hi","TRTSDT":"2013-02-09","TRTEDT":"2013-02-22"},{"STUDYID":"CDISCPILOT01","USUBJID":"01-708-1216","DOMAIN":"ADTTE","PARAMCD":"TTDERM","PARAM":"Time to First Dermatological TEAE (days)","PARAMN":1,"ADT":"2012-11-29","AVAL":37,"CNSR":1,"EVNTFL":"N","CNSDTDSC":"LAST KNOWN ON-STUDY DATE","TRT01A":"Xanomeline High Dose","TRT01AN":3,"SAFFL":"Y","ITTFL":"Y","SITEID":"708","AGE":78,"AGEGR1":"65-80","SEX":"M","RACE":"WHITE","ARMCD":"Xan_Hi","TRTSDT":"2012-10-24","TRTEDT":"2012-11-29"},{"STUDYID":"CDISCPILOT01","USUBJID":"01-708-1236","DOMAIN":"ADTTE","PARAMCD":"TTDERM","PARAM":"Time to First Dermatological TEAE (days)","PARAMN":1,"ADT":"2013-09-21","AVAL":1,"CNSR":1,"EVNTFL":"N","CNSDTDSC":"LAST KNOWN ON-STUDY DATE","TRT01A":"Xanomeline High Dose","TRT01AN":3,"SAFFL":"Y","ITTFL":"Y","SITEID":"708","AGE":86,"AGEGR1":">80","SEX":"F","RACE":"WHITE","ARMCD":"Xan_Hi","TRTSDT":"2013-09-21","TRTEDT":"2013-09-21"},{"STUDYID":"CDISCPILOT01","USUBJID":"01-708-1253","DOMAIN":"ADTTE","PARAMCD":"TTDERM","PARAM":"Time to First Dermatological TEAE (days)","PARAMN":1,"ADT":"2013-11-05","AVAL":183,"CNSR":1,"EVNTFL":"N","CNSDTDSC":"LAST KNOWN ON-STUDY DATE","TRT01A":"Placebo","TRT01AN":1,"SAFFL":"Y","ITTFL":"Y","SITEID":"708","AGE":61,"AGEGR1":"<65","SEX":"M","RACE":"WHITE","ARMCD":"Pbo","TRTSDT":"2013-05-07","TRTEDT":"2013-11-05"},{"STUDYID":"CDISCPILOT01","USUBJID":"01-708-1272","DOMAIN":"ADTTE","PARAMCD":"TTDERM","PARAM":"Time to First Dermatological TEAE (days)","PARAMN":1,"ADT":"2013-03-22","AVAL":45,"CNSR":1,"EVNTFL":"N","CNSDTDSC":"LAST KNOWN ON-STUDY DATE","TRT01A":"Xanomeline Low Dose","TRT01AN":2,"SAFFL":"Y","ITTFL":"Y","SITEID":"708","AGE":82,"AGEGR1":">80","SEX":"M","RACE":"WHITE","ARMCD":"Xan_Lo","TRTSDT":"2013-02-06","TRTEDT":"2013-03-22"},{"STUDYID":"CDISCPILOT01","USUBJID":"01-708-1286","DOMAIN":"ADTTE","PARAMCD":"TTDERM","PARAM":"Time to First Dermatological TEAE (days)","PARAMN":1,"ADT":"2014-03-08","AVAL":180,"CNSR":1,"EVNTFL":"N","CNSDTDSC":"LAST KNOWN ON-STUDY DATE","TRT01A":"Placebo","TRT01AN":1,"SAFFL":"Y","ITTFL":"Y","SITEID":"708","AGE":80,"AGEGR1":"65-80","SEX":"F","RACE":"BLACK OR AFRICAN AMERICAN","ARMCD":"Pbo","TRTSDT":"2013-09-10","TRTEDT":"2014-03-08"},{"STUDYID":"CDISCPILOT01","USUBJID":"01-708-1296","DOMAIN":"ADTTE","PARAMCD":"TTDERM","PARAM":"Time to First Dermatological TEAE (days)","PARAMN":1,"ADT":"2013-12-12","AVAL":182,"CNSR":1,"EVNTFL":"N","CNSDTDSC":"LAST KNOWN ON-STUDY DATE","TRT01A":"Placebo","TRT01AN":1,"SAFFL":"Y","ITTFL":"Y","SITEID":"708","AGE":57,"AGEGR1":"<65","SEX":"M","RACE":"BLACK OR AFRICAN AMERICAN","ARMCD":"Pbo","TRTSDT":"2013-06-14","TRTEDT":"2013-12-12"},{"STUDYID":"CDISCPILOT01","USUBJID":"01-708-1297","DOMAIN":"ADTTE","PARAMCD":"TTDERM","PARAM":"Time to First Dermatological TEAE (days)","PARAMN":1,"ADT":"2013-05-03","AVAL":99,"CNSR":1,"EVNTFL":"N","CNSDTDSC":"LAST KNOWN ON-STUDY DATE","TRT01A":"Xanomeline Low Dose","TRT01AN":2,"SAFFL":"Y","ITTFL":"Y","SITEID":"708","AGE":61,"AGEGR1":"<65","SEX":"M","RACE":"WHITE","ARMCD":"Xan_Lo","TRTSDT":"2013-01-25","TRTEDT":"2013-05-03"},{"STUDYID":"CDISCPILOT01","USUBJID":"01-708-1316","DOMAIN":"ADTTE","PARAMCD":"TTDERM","PARAM":"Time to First Dermatological TEAE (days)","PARAMN":1,"ADT":"2014-03-01","AVAL":191,"CNSR":1,"EVNTFL":"N","CNSDTDSC":"LAST KNOWN ON-STUDY DATE","TRT01A":"Placebo","TRT01AN":1,"SAFFL":"Y","ITTFL":"Y","SITEID":"708","AGE":74,"AGEGR1":"65-80","SEX":"F","RACE":"WHITE","ARMCD":"Pbo","TRTSDT":"2013-08-23","TRTEDT":"2014-03-01"},{"STUDYID":"CDISCPILOT01","USUBJID":"01-708-1336","DOMAIN":"ADTTE","PARAMCD":"TTDERM","PARAM":"Time to First Dermatological TEAE (days)","PARAMN":1,"ADT":"2013-06-05","AVAL":181,"CNSR":1,"EVNTFL":"N","CNSDTDSC":"LAST KNOWN ON-STUDY DATE","TRT01A":"Xanomeline High Dose","TRT01AN":3,"SAFFL":"Y","ITTFL":"Y","SITEID":"708","AGE":73,"AGEGR1":"65-80","SEX":"M","RACE":"WHITE","ARMCD":"Xan_Hi","TRTSDT":"2012-12-07","TRTEDT":"2013-06-05"},{"STUDYID":"CDISCPILOT01","USUBJID":"01-708-1342","DOMAIN":"ADTTE","PARAMCD":"TTDERM","PARAM":"Time to First Dermatological TEAE (days)","PARAMN":1,"ADT":"2013-06-28","AVAL":182,"CNSR":1,"EVNTFL":"N","CNSDTDSC":"LAST KNOWN ON-STUDY DATE","TRT01A":"Placebo","TRT01AN":1,"SAFFL":"Y","ITTFL":"Y","SITEID":"708","AGE":59,"AGEGR1":"<65","SEX":"F","RACE":"WHITE","ARMCD":"Pbo","TRTSDT":"2012-12-29","TRTEDT":"2013-06-28"},{"STUDYID":"CDISCPILOT01","USUBJID":"01-708-1347","DOMAIN":"ADTTE","PARAMCD":"TTDERM","PARAM":"Time to First Dermatological TEAE (days)","PARAMN":1,"ADT":"2013-06-13","AVAL":55,"CNSR":0,"EVNTFL":"Y","CNSDTDSC":null,"TRT01A":"Xanomeline High Dose","TRT01AN":3,"SAFFL":"Y","ITTFL":"Y","SITEID":"708","AGE":61,"AGEGR1":"<65","SEX":"F","RACE":"WHITE","ARMCD":"Xan_Hi","TRTSDT":"2013-04-20","TRTEDT":"2013-06-18"},{"STUDYID":"CDISCPILOT01","USUBJID":"01-708-1348","DOMAIN":"ADTTE","PARAMCD":"TTDERM","PARAM":"Time to First Dermatological TEAE (days)","PARAMN":1,"ADT":"2014-02-13","AVAL":193,"CNSR":1,"EVNTFL":"N","CNSDTDSC":"LAST KNOWN ON-STUDY DATE","TRT01A":"Xanomeline Low Dose","TRT01AN":2,"SAFFL":"Y","ITTFL":"Y","SITEID":"708","AGE":79,"AGEGR1":"65-80","SEX":"F","RACE":"WHITE","ARMCD":"Xan_Lo","TRTSDT":"2013-08-05","TRTEDT":"2014-02-13"},{"STUDYID":"CDISCPILOT01","USUBJID":"01-708-1353","DOMAIN":"ADTTE","PARAMCD":"TTDERM","PARAM":"Time to First Dermatological TEAE (days)","PARAMN":1,"ADT":"2013-08-28","AVAL":56,"CNSR":1,"EVNTFL":"N","CNSDTDSC":"LAST KNOWN ON-STUDY DATE","TRT01A":"Xanomeline Low Dose","TRT01AN":2,"SAFFL":"Y","ITTFL":"Y","SITEID":"708","AGE":87,"AGEGR1":">80","SEX":"F","RACE":"BLACK OR AFRICAN AMERICAN","ARMCD":"Xan_Lo","TRTSDT":"2013-07-04","TRTEDT":"2013-08-28"},{"STUDYID":"CDISCPILOT01","USUBJID":"01-708-1372","DOMAIN":"ADTTE","PARAMCD":"TTDERM","PARAM":"Time to First Dermatological TEAE (days)","PARAMN":1,"ADT":"2013-04-19","AVAL":8,"CNSR":1,"EVNTFL":"N","CNSDTDSC":"LAST KNOWN ON-STUDY DATE","TRT01A":"Xanomeline High Dose","TRT01AN":3,"SAFFL":"Y","ITTFL":"Y","SITEID":"708","AGE":84,"AGEGR1":">80","SEX":"M","RACE":"WHITE","ARMCD":"Xan_Hi","TRTSDT":"2013-04-12","TRTEDT":"2013-04-19"},{"STUDYID":"CDISCPILOT01","USUBJID":"01-708-1378","DOMAIN":"ADTTE","PARAMCD":"TTDERM","PARAM":"Time to First Dermatological TEAE (days)","PARAMN":1,"ADT":"2014-01-28","AVAL":148,"CNSR":1,"EVNTFL":"N","CNSDTDSC":"LAST KNOWN ON-STUDY DATE","TRT01A":"Placebo","TRT01AN":1,"SAFFL":"Y","ITTFL":"Y","SITEID":"708","AGE":67,"AGEGR1":"65-80","SEX":"M","RACE":"BLACK OR AFRICAN AMERICAN","ARMCD":"Pbo","TRTSDT":"2013-09-03","TRTEDT":"2014-01-28"},{"STUDYID":"CDISCPILOT01","USUBJID":"01-708-1406","DOMAIN":"ADTTE","PARAMCD":"TTDERM","PARAM":"Time to First Dermatological TEAE (days)","PARAMN":1,"ADT":"2014-07-02","AVAL":189,"CNSR":1,"EVNTFL":"N","CNSDTDSC":"LAST KNOWN ON-STUDY DATE","TRT01A":"Xanomeline High Dose","TRT01AN":3,"SAFFL":"Y","ITTFL":"Y","SITEID":"708","AGE":71,"AGEGR1":"65-80","SEX":"F","RACE":"WHITE","ARMCD":"Xan_Hi","TRTSDT":"2013-12-26","TRTEDT":"2014-07-02"},{"STUDYID":"CDISCPILOT01","USUBJID":"01-708-1428","DOMAIN":"ADTTE","PARAMCD":"TTDERM","PARAM":"Time to First Dermatological TEAE (days)","PARAMN":1,"ADT":"2013-12-14","AVAL":36,"CNSR":1,"EVNTFL":"N","CNSDTDSC":"LAST KNOWN ON-STUDY DATE","TRT01A":"Xanomeline Low Dose","TRT01AN":2,"SAFFL":"Y","ITTFL":"Y","SITEID":"708","AGE":84,"AGEGR1":">80","SEX":"F","RACE":"WHITE","ARMCD":"Xan_Lo","TRTSDT":"2013-11-09","TRTEDT":"2013-12-14"},{"STUDYID":"CDISCPILOT01","USUBJID":"01-709-1001","DOMAIN":"ADTTE","PARAMCD":"TTDERM","PARAM":"Time to First Dermatological TEAE (days)","PARAMN":1,"ADT":"2014-04-08","AVAL":183,"CNSR":1,"EVNTFL":"N","CNSDTDSC":"LAST KNOWN ON-STUDY DATE","TRT01A":"Placebo","TRT01AN":1,"SAFFL":"Y","ITTFL":"Y","SITEID":"709","AGE":76,"AGEGR1":"65-80","SEX":"F","RACE":"WHITE","ARMCD":"Pbo","TRTSDT":"2013-10-08","TRTEDT":"2014-04-08"},{"STUDYID":"CDISCPILOT01","USUBJID":"01-709-1007","DOMAIN":"ADTTE","PARAMCD":"TTDERM","PARAM":"Time to First Dermatological TEAE (days)","PARAMN":1,"ADT":"2012-08-28","AVAL":29,"CNSR":1,"EVNTFL":"N","CNSDTDSC":"LAST KNOWN ON-STUDY DATE","TRT01A":"Xanomeline Low Dose","TRT01AN":2,"SAFFL":"Y","ITTFL":"Y","SITEID":"709","AGE":54,"AGEGR1":"<65","SEX":"F","RACE":"WHITE","ARMCD":"Xan_Lo","TRTSDT":"2012-07-31","TRTEDT":"2012-08-28"},{"STUDYID":"CDISCPILOT01","USUBJID":"01-709-1020","DOMAIN":"ADTTE","PARAMCD":"TTDERM","PARAM":"Time to First Dermatological TEAE (days)","PARAMN":1,"ADT":"2013-06-01","AVAL":183,"CNSR":1,"EVNTFL":"N","CNSDTDSC":"LAST KNOWN ON-STUDY DATE","TRT01A":"Xanomeline Low Dose","TRT01AN":2,"SAFFL":"Y","ITTFL":"Y","SITEID":"709","AGE":72,"AGEGR1":"65-80","SEX":"F","RACE":"WHITE","ARMCD":"Xan_Lo","TRTSDT":"2012-12-01","TRTEDT":"2013-06-01"},{"STUDYID":"CDISCPILOT01","USUBJID":"01-709-1029","DOMAIN":"ADTTE","PARAMCD":"TTDERM","PARAM":"Time to First Dermatological TEAE (days)","PARAMN":1,"ADT":"2013-06-19","AVAL":177,"CNSR":0,"EVNTFL":"Y","CNSDTDSC":null,"TRT01A":"Xanomeline High Dose","TRT01AN":3,"SAFFL":"Y","ITTFL":"Y","SITEID":"709","AGE":82,"AGEGR1":">80","SEX":"M","RACE":"WHITE","ARMCD":"Xan_Hi","TRTSDT":"2012-12-25","TRTEDT":"2013-06-26"},{"STUDYID":"CDISCPILOT01","USUBJID":"01-709-1081","DOMAIN":"ADTTE","PARAMCD":"TTDERM","PARAM":"Time to First Dermatological TEAE (days)","PARAMN":1,"ADT":"2014-04-07","AVAL":80,"CNSR":0,"EVNTFL":"Y","CNSDTDSC":null,"TRT01A":"Xanomeline Low Dose","TRT01AN":2,"SAFFL":"Y","ITTFL":"Y","SITEID":"709","AGE":86,"AGEGR1":">80","SEX":"F","RACE":"WHITE","ARMCD":"Xan_Lo","TRTSDT":"2014-01-18","TRTEDT":"2014-04-27"},{"STUDYID":"CDISCPILOT01","USUBJID":"01-709-1088","DOMAIN":"ADTTE","PARAMCD":"TTDERM","PARAM":"Time to First Dermatological TEAE (days)","PARAMN":1,"ADT":"2014-08-02","AVAL":113,"CNSR":0,"EVNTFL":"Y","CNSDTDSC":null,"TRT01A":"Placebo","TRT01AN":1,"SAFFL":"Y","ITTFL":"Y","SITEID":"709","AGE":69,"AGEGR1":"65-80","SEX":"M","RACE":"WHITE","ARMCD":"Pbo","TRTSDT":"2014-04-12","TRTEDT":"2014-10-09"},{"STUDYID":"CDISCPILOT01","USUBJID":"01-709-1099","DOMAIN":"ADTTE","PARAMCD":"TTDERM","PARAM":"Time to First Dermatological TEAE (days)","PARAMN":1,"ADT":"2014-04-25","AVAL":183,"CNSR":1,"EVNTFL":"N","CNSDTDSC":"LAST KNOWN ON-STUDY DATE","TRT01A":"Xanomeline High Dose","TRT01AN":3,"SAFFL":"Y","ITTFL":"Y","SITEID":"709","AGE":79,"AGEGR1":"65-80","SEX":"F","RACE":"WHITE","ARMCD":"Xan_Hi","TRTSDT":"2013-10-25","TRTEDT":"2014-04-25"},{"STUDYID":"CDISCPILOT01","USUBJID":"01-709-1102","DOMAIN":"ADTTE","PARAMCD":"TTDERM","PARAM":"Time to First Dermatological TEAE (days)","PARAMN":1,"ADT":"2013-03-27","AVAL":72,"CNSR":1,"EVNTFL":"N","CNSDTDSC":"LAST KNOWN ON-STUDY DATE","TRT01A":"Xanomeline Low Dose","TRT01AN":2,"SAFFL":"Y","ITTFL":"Y","SITEID":"709","AGE":71,"AGEGR1":"65-80","SEX":"F","RACE":"WHITE","ARMCD":"Xan_Lo","TRTSDT":"2013-01-15","TRTEDT":"2013-03-27"},{"STUDYID":"CDISCPILOT01","USUBJID":"01-709-1168","DOMAIN":"ADTTE","PARAMCD":"TTDERM","PARAM":"Time to First Dermatological TEAE (days)","PARAMN":1,"ADT":"2013-08-17","AVAL":16,"CNSR":0,"EVNTFL":"Y","CNSDTDSC":null,"TRT01A":"Xanomeline High Dose","TRT01AN":3,"SAFFL":"Y","ITTFL":"Y","SITEID":"709","AGE":72,"AGEGR1":"65-80","SEX":"F","RACE":"WHITE","ARMCD":"Xan_Hi","TRTSDT":"2013-08-02","TRTEDT":"2013-09-26"},{"STUDYID":"CDISCPILOT01","USUBJID":"01-709-1217","DOMAIN":"ADTTE","PARAMCD":"TTDERM","PARAM":"Time to First Dermatological TEAE (days)","PARAMN":1,"ADT":"2013-05-27","AVAL":85,"CNSR":0,"EVNTFL":"Y","CNSDTDSC":null,"TRT01A":"Xanomeline Low Dose","TRT01AN":2,"SAFFL":"Y","ITTFL":"Y","SITEID":"709","AGE":77,"AGEGR1":"65-80","SEX":"M","RACE":"WHITE","ARMCD":"Xan_Lo","TRTSDT":"2013-03-04","TRTEDT":"2013-06-11"},{"STUDYID":"CDISCPILOT01","USUBJID":"01-709-1238","DOMAIN":"ADTTE","PARAMCD":"TTDERM","PARAM":"Time to First Dermatological TEAE (days)","PARAMN":1,"ADT":"2013-08-06","AVAL":84,"CNSR":1,"EVNTFL":"N","CNSDTDSC":"LAST KNOWN ON-STUDY DATE","TRT01A":"Xanomeline High Dose","TRT01AN":3,"SAFFL":"Y","ITTFL":"Y","SITEID":"709","AGE":69,"AGEGR1":"65-80","SEX":"M","RACE":"WHITE","ARMCD":"Xan_Hi","TRTSDT":"2013-05-15","TRTEDT":"2013-08-06"},{"STUDYID":"CDISCPILOT01","USUBJID":"01-709-1259","DOMAIN":"ADTTE","PARAMCD":"TTDERM","PARAM":"Time to First Dermatological TEAE (days)","PARAMN":1,"ADT":"2013-06-13","AVAL":139,"CNSR":1,"EVNTFL":"N","CNSDTDSC":"LAST KNOWN ON-STUDY DATE","TRT01A":"Placebo","TRT01AN":1,"SAFFL":"Y","ITTFL":"Y","SITEID":"709","AGE":82,"AGEGR1":">80","SEX":"M","RACE":"WHITE","ARMCD":"Pbo","TRTSDT":"2013-01-26","TRTEDT":"2013-06-13"},{"STUDYID":"CDISCPILOT01","USUBJID":"01-709-1285","DOMAIN":"ADTTE","PARAMCD":"TTDERM","PARAM":"Time to First Dermatological TEAE (days)","PARAMN":1,"ADT":"2013-05-23","AVAL":61,"CNSR":1,"EVNTFL":"N","CNSDTDSC":"LAST KNOWN ON-STUDY DATE","TRT01A":"Xanomeline Low Dose","TRT01AN":2,"SAFFL":"Y","ITTFL":"Y","SITEID":"709","AGE":87,"AGEGR1":">80","SEX":"M","RACE":"WHITE","ARMCD":"Xan_Lo","TRTSDT":"2013-03-24","TRTEDT":"2013-05-23"},{"STUDYID":"CDISCPILOT01","USUBJID":"01-709-1301","DOMAIN":"ADTTE","PARAMCD":"TTDERM","PARAM":"Time to First Dermatological TEAE (days)","PARAMN":1,"ADT":"2014-01-17","AVAL":183,"CNSR":1,"EVNTFL":"N","CNSDTDSC":"LAST KNOWN ON-STUDY DATE","TRT01A":"Placebo","TRT01AN":1,"SAFFL":"Y","ITTFL":"Y","SITEID":"709","AGE":62,"AGEGR1":"<65","SEX":"F","RACE":"WHITE","ARMCD":"Pbo","TRTSDT":"2013-07-19","TRTEDT":"2014-01-17"},{"STUDYID":"CDISCPILOT01","USUBJID":"01-709-1306","DOMAIN":"ADTTE","PARAMCD":"TTDERM","PARAM":"Time to First Dermatological TEAE (days)","PARAMN":1,"ADT":"2014-04-20","AVAL":77,"CNSR":0,"EVNTFL":"Y","CNSDTDSC":null,"TRT01A":"Placebo","TRT01AN":1,"SAFFL":"Y","ITTFL":"Y","SITEID":"709","AGE":60,"AGEGR1":"<65","SEX":"F","RACE":"WHITE","ARMCD":"Pbo","TRTSDT":"2014-02-03","TRTEDT":"2014-06-16"},{"STUDYID":"CDISCPILOT01","USUBJID":"01-709-1309","DOMAIN":"ADTTE","PARAMCD":"TTDERM","PARAM":"Time to First Dermatological TEAE (days)","PARAMN":1,"ADT":"2013-06-20","AVAL":2,"CNSR":0,"EVNTFL":"Y","CNSDTDSC":null,"TRT01A":"Xanomeline High Dose","TRT01AN":3,"SAFFL":"Y","ITTFL":"Y","SITEID":"709","AGE":65,"AGEGR1":"65-80","SEX":"M","RACE":"WHITE","ARMCD":"Xan_Hi","TRTSDT":"2013-06-19","TRTEDT":"2013-12-19"},{"STUDYID":"CDISCPILOT01","USUBJID":"01-709-1312","DOMAIN":"ADTTE","PARAMCD":"TTDERM","PARAM":"Time to First Dermatological TEAE (days)","PARAMN":1,"ADT":"2014-10-19","AVAL":183,"CNSR":1,"EVNTFL":"N","CNSDTDSC":"LAST KNOWN ON-STUDY DATE","TRT01A":"Placebo","TRT01AN":1,"SAFFL":"Y","ITTFL":"Y","SITEID":"709","AGE":68,"AGEGR1":"65-80","SEX":"F","RACE":"WHITE","ARMCD":"Pbo","TRTSDT":"2014-04-20","TRTEDT":"2014-10-19"},{"STUDYID":"CDISCPILOT01","USUBJID":"01-709-1326","DOMAIN":"ADTTE","PARAMCD":"TTDERM","PARAM":"Time to First Dermatological TEAE (days)","PARAMN":1,"ADT":"2013-10-02","AVAL":181,"CNSR":1,"EVNTFL":"N","CNSDTDSC":"LAST KNOWN ON-STUDY DATE","TRT01A":"Xanomeline Low Dose","TRT01AN":2,"SAFFL":"Y","ITTFL":"Y","SITEID":"709","AGE":75,"AGEGR1":"65-80","SEX":"F","RACE":"WHITE","ARMCD":"Xan_Lo","TRTSDT":"2013-04-05","TRTEDT":"2013-10-02"},{"STUDYID":"CDISCPILOT01","USUBJID":"01-709-1329","DOMAIN":"ADTTE","PARAMCD":"TTDERM","PARAM":"Time to First Dermatological TEAE (days)","PARAMN":1,"ADT":"2013-08-25","AVAL":11,"CNSR":1,"EVNTFL":"N","CNSDTDSC":"LAST KNOWN ON-STUDY DATE","TRT01A":"Xanomeline High Dose","TRT01AN":3,"SAFFL":"Y","ITTFL":"Y","SITEID":"709","AGE":70,"AGEGR1":"65-80","SEX":"M","RACE":"WHITE","ARMCD":"Xan_Hi","TRTSDT":"2013-08-15","TRTEDT":"2013-08-25"},{"STUDYID":"CDISCPILOT01","USUBJID":"01-709-1339","DOMAIN":"ADTTE","PARAMCD":"TTDERM","PARAM":"Time to First Dermatological TEAE (days)","PARAMN":1,"ADT":"2013-06-24","AVAL":184,"CNSR":1,"EVNTFL":"N","CNSDTDSC":"LAST KNOWN ON-STUDY DATE","TRT01A":"Placebo","TRT01AN":1,"SAFFL":"Y","ITTFL":"Y","SITEID":"709","AGE":81,"AGEGR1":">80","SEX":"M","RACE":"WHITE","ARMCD":"Pbo","TRTSDT":"2012-12-23","TRTEDT":"2013-06-24"},{"STUDYID":"CDISCPILOT01","USUBJID":"01-709-1424","DOMAIN":"ADTTE","PARAMCD":"TTDERM","PARAM":"Time to First Dermatological TEAE (days)","PARAMN":1,"ADT":"2013-03-07","AVAL":5,"CNSR":1,"EVNTFL":"N","CNSDTDSC":"LAST KNOWN ON-STUDY DATE","TRT01A":"Xanomeline High Dose","TRT01AN":3,"SAFFL":"Y","ITTFL":"Y","SITEID":"709","AGE":77,"AGEGR1":"65-80","SEX":"M","RACE":"WHITE","ARMCD":"Xan_Hi","TRTSDT":"2013-03-03","TRTEDT":"2013-03-07"},{"STUDYID":"CDISCPILOT01","USUBJID":"01-710-1002","DOMAIN":"ADTTE","PARAMCD":"TTDERM","PARAM":"Time to First Dermatological TEAE (days)","PARAMN":1,"ADT":"2014-01-18","AVAL":5,"CNSR":1,"EVNTFL":"N","CNSDTDSC":"LAST KNOWN ON-STUDY DATE","TRT01A":"Xanomeline Low Dose","TRT01AN":2,"SAFFL":"Y","ITTFL":"Y","SITEID":"710","AGE":88,"AGEGR1":">80","SEX":"M","RACE":"WHITE","ARMCD":"Xan_Lo","TRTSDT":"2014-01-14","TRTEDT":"2014-01-18"},{"STUDYID":"CDISCPILOT01","USUBJID":"01-710-1006","DOMAIN":"ADTTE","PARAMCD":"TTDERM","PARAM":"Time to First Dermatological TEAE (days)","PARAMN":1,"ADT":"2013-03-01","AVAL":20,"CNSR":0,"EVNTFL":"Y","CNSDTDSC":null,"TRT01A":"Xanomeline High Dose","TRT01AN":3,"SAFFL":"Y","ITTFL":"Y","SITEID":"710","AGE":77,"AGEGR1":"65-80","SEX":"M","RACE":"WHITE","ARMCD":"Xan_Hi","TRTSDT":"2013-02-10","TRTEDT":"2013-08-09"},{"STUDYID":"CDISCPILOT01","USUBJID":"01-710-1021","DOMAIN":"ADTTE","PARAMCD":"TTDERM","PARAM":"Time to First Dermatological TEAE (days)","PARAMN":1,"ADT":"2013-10-21","AVAL":25,"CNSR":0,"EVNTFL":"Y","CNSDTDSC":null,"TRT01A":"Xanomeline High Dose","TRT01AN":3,"SAFFL":"Y","ITTFL":"Y","SITEID":"710","AGE":79,"AGEGR1":"65-80","SEX":"M","RACE":"BLACK OR AFRICAN AMERICAN","ARMCD":"Xan_Hi","TRTSDT":"2013-09-27","TRTEDT":"2013-10-29"},{"STUDYID":"CDISCPILOT01","USUBJID":"01-710-1027","DOMAIN":"ADTTE","PARAMCD":"TTDERM","PARAM":"Time to First Dermatological TEAE (days)","PARAMN":1,"ADT":"2014-08-29","AVAL":183,"CNSR":1,"EVNTFL":"N","CNSDTDSC":"LAST KNOWN ON-STUDY DATE","TRT01A":"Placebo","TRT01AN":1,"SAFFL":"Y","ITTFL":"Y","SITEID":"710","AGE":83,"AGEGR1":">80","SEX":"M","RACE":"WHITE","ARMCD":"Pbo","TRTSDT":"2014-02-28","TRTEDT":"2014-08-29"},{"STUDYID":"CDISCPILOT01","USUBJID":"01-710-1045","DOMAIN":"ADTTE","PARAMCD":"TTDERM","PARAM":"Time to First Dermatological TEAE (days)","PARAMN":1,"ADT":"2013-07-02","AVAL":30,"CNSR":0,"EVNTFL":"Y","CNSDTDSC":null,"TRT01A":"Xanomeline Low Dose","TRT01AN":2,"SAFFL":"Y","ITTFL":"Y","SITEID":"710","AGE":83,"AGEGR1":">80","SEX":"F","RACE":"WHITE","ARMCD":"Xan_Lo","TRTSDT":"2013-06-03","TRTEDT":"2013-08-13"},{"STUDYID":"CDISCPILOT01","USUBJID":"01-710-1053","DOMAIN":"ADTTE","PARAMCD":"TTDERM","PARAM":"Time to First Dermatological TEAE (days)","PARAMN":1,"ADT":"2013-01-28","AVAL":34,"CNSR":0,"EVNTFL":"Y","CNSDTDSC":null,"TRT01A":"Xanomeline Low Dose","TRT01AN":2,"SAFFL":"Y","ITTFL":"Y","SITEID":"710","AGE":84,"AGEGR1":">80","SEX":"F","RACE":"WHITE","ARMCD":"Xan_Lo","TRTSDT":"2012-12-26","TRTEDT":"2013-02-10"},{"STUDYID":"CDISCPILOT01","USUBJID":"01-710-1060","DOMAIN":"ADTTE","PARAMCD":"TTDERM","PARAM":"Time to First Dermatological TEAE (days)","PARAMN":1,"ADT":"2013-07-05","AVAL":186,"CNSR":1,"EVNTFL":"N","CNSDTDSC":"LAST KNOWN ON-STUDY DATE","TRT01A":"Placebo","TRT01AN":1,"SAFFL":"Y","ITTFL":"Y","SITEID":"710","AGE":82,"AGEGR1":">80","SEX":"M","RACE":"WHITE","ARMCD":"Pbo","TRTSDT":"2013-01-01","TRTEDT":"2013-07-05"},{"STUDYID":"CDISCPILOT01","USUBJID":"01-710-1070","DOMAIN":"ADTTE","PARAMCD":"TTDERM","PARAM":"Time to First Dermatological TEAE (days)","PARAMN":1,"ADT":"2012-12-12","AVAL":96,"CNSR":0,"EVNTFL":"Y","CNSDTDSC":null,"TRT01A":"Xanomeline High Dose","TRT01AN":3,"SAFFL":"Y","ITTFL":"Y","SITEID":"710","AGE":85,"AGEGR1":">80","SEX":"F","RACE":"WHITE","ARMCD":"Xan_Hi","TRTSDT":"2012-09-08","TRTEDT":"2013-01-22"},{"STUDYID":"CDISCPILOT01","USUBJID":"01-710-1077","DOMAIN":"ADTTE","PARAMCD":"TTDERM","PARAM":"Time to First Dermatological TEAE (days)","PARAMN":1,"ADT":"2013-12-27","AVAL":41,"CNSR":0,"EVNTFL":"Y","CNSDTDSC":null,"TRT01A":"Placebo","TRT01AN":1,"SAFFL":"Y","ITTFL":"Y","SITEID":"710","AGE":76,"AGEGR1":"65-80","SEX":"F","RACE":"WHITE","ARMCD":"Pbo","TRTSDT":"2013-11-17","TRTEDT":"2014-05-18"},{"STUDYID":"CDISCPILOT01","USUBJID":"01-710-1078","DOMAIN":"ADTTE","PARAMCD":"TTDERM","PARAM":"Time to First Dermatological TEAE (days)","PARAMN":1,"ADT":"2014-03-23","AVAL":188,"CNSR":1,"EVNTFL":"N","CNSDTDSC":"LAST KNOWN ON-STUDY DATE","TRT01A":"Placebo","TRT01AN":1,"SAFFL":"Y","ITTFL":"Y","SITEID":"710","AGE":81,"AGEGR1":">80","SEX":"F","RACE":"WHITE","ARMCD":"Pbo","TRTSDT":"2013-09-17","TRTEDT":"2014-03-23"},{"STUDYID":"CDISCPILOT01","USUBJID":"01-710-1083","DOMAIN":"ADTTE","PARAMCD":"TTDERM","PARAM":"Time to First Dermatological TEAE (days)","PARAMN":1,"ADT":"2013-08-01","AVAL":11,"CNSR":1,"EVNTFL":"N","CNSDTDSC":"LAST KNOWN ON-STUDY DATE","TRT01A":"Placebo","TRT01AN":1,"SAFFL":"Y","ITTFL":"Y","SITEID":"710","AGE":89,"AGEGR1":">80","SEX":"F","RACE":"WHITE","ARMCD":"Pbo","TRTSDT":"2013-07-22","TRTEDT":"2013-08-01"},{"STUDYID":"CDISCPILOT01","USUBJID":"01-710-1137","DOMAIN":"ADTTE","PARAMCD":"TTDERM","PARAM":"Time to First Dermatological TEAE (days)","PARAMN":1,"ADT":"2013-10-13","AVAL":3,"CNSR":0,"EVNTFL":"Y","CNSDTDSC":null,"TRT01A":"Xanomeline High Dose","TRT01AN":3,"SAFFL":"Y","ITTFL":"Y","SITEID":"710","AGE":79,"AGEGR1":"65-80","SEX":"F","RACE":"BLACK OR AFRICAN AMERICAN","ARMCD":"Xan_Hi","TRTSDT":"2013-10-11","TRTEDT":"2013-11-13"},{"STUDYID":"CDISCPILOT01","USUBJID":"01-710-1142","DOMAIN":"ADTTE","PARAMCD":"TTDERM","PARAM":"Time to First Dermatological TEAE (days)","PARAMN":1,"ADT":"2012-10-20","AVAL":19,"CNSR":1,"EVNTFL":"N","CNSDTDSC":"LAST KNOWN ON-STUDY DATE","TRT01A":"Xanomeline High Dose","TRT01AN":3,"SAFFL":"Y","ITTFL":"Y","SITEID":"710","AGE":76,"AGEGR1":"65-80","SEX":"F","RACE":"WHITE","ARMCD":"Xan_Hi","TRTSDT":"2012-10-02","TRTEDT":"2012-10-20"},{"STUDYID":"CDISCPILOT01","USUBJID":"01-710-1154","DOMAIN":"ADTTE","PARAMCD":"TTDERM","PARAM":"Time to First Dermatological TEAE (days)","PARAMN":1,"ADT":"2014-04-18","AVAL":21,"CNSR":0,"EVNTFL":"Y","CNSDTDSC":null,"TRT01A":"Xanomeline Low Dose","TRT01AN":2,"SAFFL":"Y","ITTFL":"Y","SITEID":"710","AGE":84,"AGEGR1":">80","SEX":"M","RACE":"WHITE","ARMCD":"Xan_Lo","TRTSDT":"2014-03-29","TRTEDT":"2014-04-27"},{"STUDYID":"CDISCPILOT01","USUBJID":"01-710-1166","DOMAIN":"ADTTE","PARAMCD":"TTDERM","PARAM":"Time to First Dermatological TEAE (days)","PARAMN":1,"ADT":"2013-03-19","AVAL":110,"CNSR":1,"EVNTFL":"N","CNSDTDSC":"LAST KNOWN ON-STUDY DATE","TRT01A":"Xanomeline Low Dose","TRT01AN":2,"SAFFL":"Y","ITTFL":"Y","SITEID":"710","AGE":81,"AGEGR1":">80","SEX":"F","RACE":"WHITE","ARMCD":"Xan_Lo","TRTSDT":"2012-11-30","TRTEDT":"2013-03-19"},{"STUDYID":"CDISCPILOT01","USUBJID":"01-710-1183","DOMAIN":"ADTTE","PARAMCD":"TTDERM","PARAM":"Time to First Dermatological TEAE (days)","PARAMN":1,"ADT":"2014-05-17","AVAL":183,"CNSR":1,"EVNTFL":"N","CNSDTDSC":"LAST KNOWN ON-STUDY DATE","TRT01A":"Placebo","TRT01AN":1,"SAFFL":"Y","ITTFL":"Y","SITEID":"710","AGE":80,"AGEGR1":"65-80","SEX":"F","RACE":"WHITE","ARMCD":"Pbo","TRTSDT":"2013-11-16","TRTEDT":"2014-05-17"},{"STUDYID":"CDISCPILOT01","USUBJID":"01-710-1187","DOMAIN":"ADTTE","PARAMCD":"TTDERM","PARAM":"Time to First Dermatological TEAE (days)","PARAMN":1,"ADT":"2013-05-12","AVAL":184,"CNSR":1,"EVNTFL":"N","CNSDTDSC":"LAST KNOWN ON-STUDY DATE","TRT01A":"Xanomeline High Dose","TRT01AN":3,"SAFFL":"Y","ITTFL":"Y","SITEID":"710","AGE":78,"AGEGR1":"65-80","SEX":"F","RACE":"WHITE","ARMCD":"Xan_Hi","TRTSDT":"2012-11-10","TRTEDT":"2013-05-12"},{"STUDYID":"CDISCPILOT01","USUBJID":"01-710-1235","DOMAIN":"ADTTE","PARAMCD":"TTDERM","PARAM":"Time to First Dermatological TEAE (days)","PARAMN":1,"ADT":"2013-03-27","AVAL":183,"CNSR":1,"EVNTFL":"N","CNSDTDSC":"LAST KNOWN ON-STUDY DATE","TRT01A":"Xanomeline Low Dose","TRT01AN":2,"SAFFL":"Y","ITTFL":"Y","SITEID":"710","AGE":56,"AGEGR1":"<65","SEX":"F","RACE":"WHITE","ARMCD":"Xan_Lo","TRTSDT":"2012-09-26","TRTEDT":"2013-03-27"},{"STUDYID":"CDISCPILOT01","USUBJID":"01-710-1249","DOMAIN":"ADTTE","PARAMCD":"TTDERM","PARAM":"Time to First Dermatological TEAE (days)","PARAMN":1,"ADT":"2014-02-11","AVAL":46,"CNSR":0,"EVNTFL":"Y","CNSDTDSC":null,"TRT01A":"Xanomeline High Dose","TRT01AN":3,"SAFFL":"Y","ITTFL":"Y","SITEID":"710","AGE":79,"AGEGR1":"65-80","SEX":"M","RACE":"WHITE","ARMCD":"Xan_Hi","TRTSDT":"2013-12-28","TRTEDT":"2014-06-28"},{"STUDYID":"CDISCPILOT01","USUBJID":"01-710-1264","DOMAIN":"ADTTE","PARAMCD":"TTDERM","PARAM":"Time to First Dermatological TEAE (days)","PARAMN":1,"ADT":"2013-08-21","AVAL":70,"CNSR":0,"EVNTFL":"Y","CNSDTDSC":null,"TRT01A":"Placebo","TRT01AN":1,"SAFFL":"Y","ITTFL":"Y","SITEID":"710","AGE":78,"AGEGR1":"65-80","SEX":"M","RACE":"WHITE","ARMCD":"Pbo","TRTSDT":"2013-06-13","TRTEDT":"2013-10-11"},{"STUDYID":"CDISCPILOT01","USUBJID":"01-710-1270","DOMAIN":"ADTTE","PARAMCD":"TTDERM","PARAM":"Time to First Dermatological TEAE (days)","PARAMN":1,"ADT":"2014-02-23","AVAL":12,"CNSR":0,"EVNTFL":"Y","CNSDTDSC":null,"TRT01A":"Xanomeline Low Dose","TRT01AN":2,"SAFFL":"Y","ITTFL":"Y","SITEID":"710","AGE":83,"AGEGR1":">80","SEX":"F","RACE":"WHITE","ARMCD":"Xan_Lo","TRTSDT":"2014-02-12","TRTEDT":"2014-03-01"},{"STUDYID":"CDISCPILOT01","USUBJID":"01-710-1271","DOMAIN":"ADTTE","PARAMCD":"TTDERM","PARAM":"Time to First Dermatological TEAE (days)","PARAMN":1,"ADT":"2012-11-21","AVAL":56,"CNSR":1,"EVNTFL":"N","CNSDTDSC":"LAST KNOWN ON-STUDY DATE","TRT01A":"Placebo","TRT01AN":1,"SAFFL":"Y","ITTFL":"Y","SITEID":"710","AGE":86,"AGEGR1":">80","SEX":"F","RACE":"WHITE","ARMCD":"Pbo","TRTSDT":"2012-09-27","TRTEDT":"2012-11-21"},{"STUDYID":"CDISCPILOT01","USUBJID":"01-710-1278","DOMAIN":"ADTTE","PARAMCD":"TTDERM","PARAM":"Time to First Dermatological TEAE (days)","PARAMN":1,"ADT":"2013-02-07","AVAL":46,"CNSR":0,"EVNTFL":"Y","CNSDTDSC":null,"TRT01A":"Xanomeline High Dose","TRT01AN":3,"SAFFL":"Y","ITTFL":"Y","SITEID":"710","AGE":81,"AGEGR1":">80","SEX":"M","RACE":"WHITE","ARMCD":"Xan_Hi","TRTSDT":"2012-12-24","TRTEDT":"2013-02-26"},{"STUDYID":"CDISCPILOT01","USUBJID":"01-710-1300","DOMAIN":"ADTTE","PARAMCD":"TTDERM","PARAM":"Time to First Dermatological TEAE (days)","PARAMN":1,"ADT":"2013-01-31","AVAL":48,"CNSR":0,"EVNTFL":"Y","CNSDTDSC":null,"TRT01A":"Xanomeline Low Dose","TRT01AN":2,"SAFFL":"Y","ITTFL":"Y","SITEID":"710","AGE":78,"AGEGR1":"65-80","SEX":"F","RACE":"WHITE","ARMCD":"Xan_Lo","TRTSDT":"2012-12-15","TRTEDT":"2013-02-15"},{"STUDYID":"CDISCPILOT01","USUBJID":"01-710-1314","DOMAIN":"ADTTE","PARAMCD":"TTDERM","PARAM":"Time to First Dermatological TEAE (days)","PARAMN":1,"ADT":"2013-05-23","AVAL":30,"CNSR":1,"EVNTFL":"N","CNSDTDSC":"LAST KNOWN ON-STUDY DATE","TRT01A":"Placebo","TRT01AN":1,"SAFFL":"Y","ITTFL":"Y","SITEID":"710","AGE":78,"AGEGR1":"65-80","SEX":"F","RACE":"WHITE","ARMCD":"Pbo","TRTSDT":"2013-04-24","TRTEDT":"2013-05-23"},{"STUDYID":"CDISCPILOT01","USUBJID":"01-710-1315","DOMAIN":"ADTTE","PARAMCD":"TTDERM","PARAM":"Time to First Dermatological TEAE (days)","PARAMN":1,"ADT":"2013-05-14","AVAL":77,"CNSR":0,"EVNTFL":"Y","CNSDTDSC":null,"TRT01A":"Placebo","TRT01AN":1,"SAFFL":"Y","ITTFL":"Y","SITEID":"710","AGE":83,"AGEGR1":">80","SEX":"F","RACE":"WHITE","ARMCD":"Pbo","TRTSDT":"2013-02-27","TRTEDT":"2013-07-06"},{"STUDYID":"CDISCPILOT01","USUBJID":"01-710-1354","DOMAIN":"ADTTE","PARAMCD":"TTDERM","PARAM":"Time to First Dermatological TEAE (days)","PARAMN":1,"ADT":"2012-12-30","AVAL":50,"CNSR":0,"EVNTFL":"Y","CNSDTDSC":null,"TRT01A":"Xanomeline High Dose","TRT01AN":3,"SAFFL":"Y","ITTFL":"Y","SITEID":"710","AGE":73,"AGEGR1":"65-80","SEX":"M","RACE":"WHITE","ARMCD":"Xan_Hi","TRTSDT":"2012-11-11","TRTEDT":"2013-05-01"},{"STUDYID":"CDISCPILOT01","USUBJID":"01-710-1358","DOMAIN":"ADTTE","PARAMCD":"TTDERM","PARAM":"Time to First Dermatological TEAE (days)","PARAMN":1,"ADT":"2012-12-22","AVAL":97,"CNSR":0,"EVNTFL":"Y","CNSDTDSC":null,"TRT01A":"Xanomeline Low Dose","TRT01AN":2,"SAFFL":"Y","ITTFL":"Y","SITEID":"710","AGE":82,"AGEGR1":">80","SEX":"M","RACE":"WHITE","ARMCD":"Xan_Lo","TRTSDT":"2012-09-17","TRTEDT":"2013-02-09"},{"STUDYID":"CDISCPILOT01","USUBJID":"01-710-1368","DOMAIN":"ADTTE","PARAMCD":"TTDERM","PARAM":"Time to First Dermatological TEAE (days)","PARAMN":1,"ADT":"2014-04-24","AVAL":184,"CNSR":1,"EVNTFL":"N","CNSDTDSC":"LAST KNOWN ON-STUDY DATE","TRT01A":"Placebo","TRT01AN":1,"SAFFL":"Y","ITTFL":"Y","SITEID":"710","AGE":88,"AGEGR1":">80","SEX":"F","RACE":"WHITE","ARMCD":"Pbo","TRTSDT":"2013-10-23","TRTEDT":"2014-04-24"},{"STUDYID":"CDISCPILOT01","USUBJID":"01-710-1385","DOMAIN":"ADTTE","PARAMCD":"TTDERM","PARAM":"Time to First Dermatological TEAE (days)","PARAMN":1,"ADT":"2012-12-18","AVAL":51,"CNSR":0,"EVNTFL":"Y","CNSDTDSC":null,"TRT01A":"Xanomeline Low Dose","TRT01AN":2,"SAFFL":"Y","ITTFL":"Y","SITEID":"710","AGE":77,"AGEGR1":"65-80","SEX":"M","RACE":"WHITE","ARMCD":"Xan_Lo","TRTSDT":"2012-10-29","TRTEDT":"2013-02-18"},{"STUDYID":"CDISCPILOT01","USUBJID":"01-710-1408","DOMAIN":"ADTTE","PARAMCD":"TTDERM","PARAM":"Time to First Dermatological TEAE (days)","PARAMN":1,"ADT":"2013-02-24","AVAL":51,"CNSR":0,"EVNTFL":"Y","CNSDTDSC":null,"TRT01A":"Xanomeline High Dose","TRT01AN":3,"SAFFL":"Y","ITTFL":"Y","SITEID":"710","AGE":80,"AGEGR1":"65-80","SEX":"M","RACE":"WHITE","ARMCD":"Xan_Hi","TRTSDT":"2013-01-05","TRTEDT":"2013-07-12"},{"STUDYID":"CDISCPILOT01","USUBJID":"01-711-1012","DOMAIN":"ADTTE","PARAMCD":"TTDERM","PARAM":"Time to First Dermatological TEAE (days)","PARAMN":1,"ADT":"2013-04-29","AVAL":27,"CNSR":1,"EVNTFL":"N","CNSDTDSC":"LAST KNOWN ON-STUDY DATE","TRT01A":"Xanomeline High Dose","TRT01AN":3,"SAFFL":"Y","ITTFL":"Y","SITEID":"711","AGE":67,"AGEGR1":"65-80","SEX":"F","RACE":"WHITE","ARMCD":"Xan_Hi","TRTSDT":"2013-04-03","TRTEDT":"2013-04-29"},{"STUDYID":"CDISCPILOT01","USUBJID":"01-711-1036","DOMAIN":"ADTTE","PARAMCD":"TTDERM","PARAM":"Time to First Dermatological TEAE (days)","PARAMN":1,"ADT":"2013-02-10","AVAL":197,"CNSR":1,"EVNTFL":"N","CNSDTDSC":"LAST KNOWN ON-STUDY DATE","TRT01A":"Placebo","TRT01AN":1,"SAFFL":"Y","ITTFL":"Y","SITEID":"711","AGE":70,"AGEGR1":"65-80","SEX":"M","RACE":"BLACK OR AFRICAN AMERICAN","ARMCD":"Pbo","TRTSDT":"2012-07-29","TRTEDT":"2013-02-10"},{"STUDYID":"CDISCPILOT01","USUBJID":"01-711-1143","DOMAIN":"ADTTE","PARAMCD":"TTDERM","PARAM":"Time to First Dermatological TEAE (days)","PARAMN":1,"ADT":"2013-05-27","AVAL":55,"CNSR":0,"EVNTFL":"Y","CNSDTDSC":null,"TRT01A":"Xanomeline Low Dose","TRT01AN":2,"SAFFL":"Y","ITTFL":"Y","SITEID":"711","AGE":76,"AGEGR1":"65-80","SEX":"F","RACE":"WHITE","ARMCD":"Xan_Lo","TRTSDT":"2013-04-03","TRTEDT":"2013-05-30"},{"STUDYID":"CDISCPILOT01","USUBJID":"01-711-1433","DOMAIN":"ADTTE","PARAMCD":"TTDERM","PARAM":"Time to First Dermatological TEAE (days)","PARAMN":1,"ADT":"2013-02-05","AVAL":10,"CNSR":1,"EVNTFL":"N","CNSDTDSC":"LAST KNOWN ON-STUDY DATE","TRT01A":"Xanomeline High Dose","TRT01AN":3,"SAFFL":"Y","ITTFL":"Y","SITEID":"711","AGE":84,"AGEGR1":">80","SEX":"F","RACE":"WHITE","ARMCD":"Xan_Hi","TRTSDT":"2013-01-27","TRTEDT":"2013-02-05"},{"STUDYID":"CDISCPILOT01","USUBJID":"01-713-1043","DOMAIN":"ADTTE","PARAMCD":"TTDERM","PARAM":"Time to First Dermatological TEAE (days)","PARAMN":1,"ADT":"2014-03-24","AVAL":191,"CNSR":1,"EVNTFL":"N","CNSDTDSC":"LAST KNOWN ON-STUDY DATE","TRT01A":"Xanomeline Low Dose","TRT01AN":2,"SAFFL":"Y","ITTFL":"Y","SITEID":"713","AGE":78,"AGEGR1":"65-80","SEX":"F","RACE":"WHITE","ARMCD":"Xan_Lo","TRTSDT":"2013-09-15","TRTEDT":"2014-03-24"},{"STUDYID":"CDISCPILOT01","USUBJID":"01-713-1073","DOMAIN":"ADTTE","PARAMCD":"TTDERM","PARAM":"Time to First Dermatological TEAE (days)","PARAMN":1,"ADT":"2014-10-05","AVAL":190,"CNSR":1,"EVNTFL":"N","CNSDTDSC":"LAST KNOWN ON-STUDY DATE","TRT01A":"Xanomeline Low Dose","TRT01AN":2,"SAFFL":"Y","ITTFL":"Y","SITEID":"713","AGE":74,"AGEGR1":"65-80","SEX":"F","RACE":"BLACK OR AFRICAN AMERICAN","ARMCD":"Xan_Lo","TRTSDT":"2014-03-30","TRTEDT":"2014-10-05"},{"STUDYID":"CDISCPILOT01","USUBJID":"01-713-1106","DOMAIN":"ADTTE","PARAMCD":"TTDERM","PARAM":"Time to First Dermatological TEAE (days)","PARAMN":1,"ADT":"2013-05-06","AVAL":188,"CNSR":1,"EVNTFL":"N","CNSDTDSC":"LAST KNOWN ON-STUDY DATE","TRT01A":"Xanomeline High Dose","TRT01AN":3,"SAFFL":"Y","ITTFL":"Y","SITEID":"713","AGE":74,"AGEGR1":"65-80","SEX":"M","RACE":"WHITE","ARMCD":"Xan_Hi","TRTSDT":"2012-10-31","TRTEDT":"2013-05-06"},{"STUDYID":"CDISCPILOT01","USUBJID":"01-713-1141","DOMAIN":"ADTTE","PARAMCD":"TTDERM","PARAM":"Time to First Dermatological TEAE (days)","PARAMN":1,"ADT":"2013-06-21","AVAL":22,"CNSR":0,"EVNTFL":"Y","CNSDTDSC":null,"TRT01A":"Xanomeline High Dose","TRT01AN":3,"SAFFL":"Y","ITTFL":"Y","SITEID":"713","AGE":79,"AGEGR1":"65-80","SEX":"M","RACE":"WHITE","ARMCD":"Xan_Hi","TRTSDT":"2013-05-31","TRTEDT":"2013-07-01"},{"STUDYID":"CDISCPILOT01","USUBJID":"01-713-1179","DOMAIN":"ADTTE","PARAMCD":"TTDERM","PARAM":"Time to First Dermatological TEAE (days)","PARAMN":1,"ADT":"2014-02-05","AVAL":181,"CNSR":1,"EVNTFL":"N","CNSDTDSC":"LAST KNOWN ON-STUDY DATE","TRT01A":"Placebo","TRT01AN":1,"SAFFL":"Y","ITTFL":"Y","SITEID":"713","AGE":64,"AGEGR1":"<65","SEX":"F","RACE":"WHITE","ARMCD":"Pbo","TRTSDT":"2013-08-09","TRTEDT":"2014-02-05"},{"STUDYID":"CDISCPILOT01","USUBJID":"01-713-1209","DOMAIN":"ADTTE","PARAMCD":"TTDERM","PARAM":"Time to First Dermatological TEAE (days)","PARAMN":1,"ADT":"2013-11-22","AVAL":180,"CNSR":1,"EVNTFL":"N","CNSDTDSC":"LAST KNOWN ON-STUDY DATE","TRT01A":"Xanomeline High Dose","TRT01AN":3,"SAFFL":"Y","ITTFL":"Y","SITEID":"713","AGE":77,"AGEGR1":"65-80","SEX":"F","RACE":"WHITE","ARMCD":"Xan_Hi","TRTSDT":"2013-05-27","TRTEDT":"2013-11-22"},{"STUDYID":"CDISCPILOT01","USUBJID":"01-713-1256","DOMAIN":"ADTTE","PARAMCD":"TTDERM","PARAM":"Time to First Dermatological TEAE (days)","PARAMN":1,"ADT":"2013-03-25","AVAL":188,"CNSR":1,"EVNTFL":"N","CNSDTDSC":"LAST KNOWN ON-STUDY DATE","TRT01A":"Placebo","TRT01AN":1,"SAFFL":"Y","ITTFL":"Y","SITEID":"713","AGE":71,"AGEGR1":"65-80","SEX":"M","RACE":"WHITE","ARMCD":"Pbo","TRTSDT":"2012-09-19","TRTEDT":"2013-03-25"},{"STUDYID":"CDISCPILOT01","USUBJID":"01-713-1269","DOMAIN":"ADTTE","PARAMCD":"TTDERM","PARAM":"Time to First Dermatological TEAE (days)","PARAMN":1,"ADT":"2014-07-10","AVAL":165,"CNSR":0,"EVNTFL":"Y","CNSDTDSC":null,"TRT01A":"Placebo","TRT01AN":1,"SAFFL":"Y","ITTFL":"Y","SITEID":"713","AGE":73,"AGEGR1":"65-80","SEX":"M","RACE":"WHITE","ARMCD":"Pbo","TRTSDT":"2014-01-27","TRTEDT":"2014-07-28"},{"STUDYID":"CDISCPILOT01","USUBJID":"01-713-1448","DOMAIN":"ADTTE","PARAMCD":"TTDERM","PARAM":"Time to First Dermatological TEAE (days)","PARAMN":1,"ADT":"2014-05-16","AVAL":118,"CNSR":1,"EVNTFL":"N","CNSDTDSC":"LAST KNOWN ON-STUDY DATE","TRT01A":"Xanomeline Low Dose","TRT01AN":2,"SAFFL":"Y","ITTFL":"Y","SITEID":"713","AGE":71,"AGEGR1":"65-80","SEX":"F","RACE":"WHITE","ARMCD":"Xan_Lo","TRTSDT":"2014-01-19","TRTEDT":"2014-05-16"},{"STUDYID":"CDISCPILOT01","USUBJID":"01-714-1035","DOMAIN":"ADTTE","PARAMCD":"TTDERM","PARAM":"Time to First Dermatological TEAE (days)","PARAMN":1,"ADT":"2014-10-16","AVAL":183,"CNSR":1,"EVNTFL":"N","CNSDTDSC":"LAST KNOWN ON-STUDY DATE","TRT01A":"Placebo","TRT01AN":1,"SAFFL":"Y","ITTFL":"Y","SITEID":"714","AGE":88,"AGEGR1":">80","SEX":"F","RACE":"WHITE","ARMCD":"Pbo","TRTSDT":"2014-04-17","TRTEDT":"2014-10-16"},{"STUDYID":"CDISCPILOT01","USUBJID":"01-714-1068","DOMAIN":"ADTTE","PARAMCD":"TTDERM","PARAM":"Time to First Dermatological TEAE (days)","PARAMN":1,"ADT":"2013-08-12","AVAL":5,"CNSR":0,"EVNTFL":"Y","CNSDTDSC":null,"TRT01A":"Xanomeline Low Dose","TRT01AN":2,"SAFFL":"Y","ITTFL":"Y","SITEID":"714","AGE":79,"AGEGR1":"65-80","SEX":"F","RACE":"WHITE","ARMCD":"Xan_Lo","TRTSDT":"2013-08-08","TRTEDT":"2013-10-08"},{"STUDYID":"CDISCPILOT01","USUBJID":"01-714-1195","DOMAIN":"ADTTE","PARAMCD":"TTDERM","PARAM":"Time to First Dermatological TEAE (days)","PARAMN":1,"ADT":"2013-05-12","AVAL":17,"CNSR":0,"EVNTFL":"Y","CNSDTDSC":null,"TRT01A":"Xanomeline Low Dose","TRT01AN":2,"SAFFL":"Y","ITTFL":"Y","SITEID":"714","AGE":75,"AGEGR1":"65-80","SEX":"M","RACE":"WHITE","ARMCD":"Xan_Lo","TRTSDT":"2013-04-26","TRTEDT":"2013-10-23"},{"STUDYID":"CDISCPILOT01","USUBJID":"01-714-1288","DOMAIN":"ADTTE","PARAMCD":"TTDERM","PARAM":"Time to First Dermatological TEAE (days)","PARAMN":1,"ADT":"2014-01-11","AVAL":39,"CNSR":0,"EVNTFL":"Y","CNSDTDSC":null,"TRT01A":"Xanomeline High Dose","TRT01AN":3,"SAFFL":"Y","ITTFL":"Y","SITEID":"714","AGE":77,"AGEGR1":"65-80","SEX":"M","RACE":"BLACK OR AFRICAN AMERICAN","ARMCD":"Xan_Hi","TRTSDT":"2013-12-04","TRTEDT":"2014-06-17"},{"STUDYID":"CDISCPILOT01","USUBJID":"01-714-1375","DOMAIN":"ADTTE","PARAMCD":"TTDERM","PARAM":"Time to First Dermatological TEAE (days)","PARAMN":1,"ADT":"2013-03-30","AVAL":33,"CNSR":0,"EVNTFL":"Y","CNSDTDSC":null,"TRT01A":"Placebo","TRT01AN":1,"SAFFL":"Y","ITTFL":"Y","SITEID":"714","AGE":78,"AGEGR1":"65-80","SEX":"F","RACE":"WHITE","ARMCD":"Pbo","TRTSDT":"2013-02-26","TRTEDT":"2013-09-07"},{"STUDYID":"CDISCPILOT01","USUBJID":"01-714-1425","DOMAIN":"ADTTE","PARAMCD":"TTDERM","PARAM":"Time to First Dermatological TEAE (days)","PARAMN":1,"ADT":"2013-08-19","AVAL":5,"CNSR":1,"EVNTFL":"N","CNSDTDSC":"LAST KNOWN ON-STUDY DATE","TRT01A":"Xanomeline High Dose","TRT01AN":3,"SAFFL":"Y","ITTFL":"Y","SITEID":"714","AGE":81,"AGEGR1":">80","SEX":"M","RACE":"WHITE","ARMCD":"Xan_Hi","TRTSDT":"2013-08-15","TRTEDT":"2013-08-19"},{"STUDYID":"CDISCPILOT01","USUBJID":"01-715-1085","DOMAIN":"ADTTE","PARAMCD":"TTDERM","PARAM":"Time to First Dermatological TEAE (days)","PARAMN":1,"ADT":"2013-08-18","AVAL":184,"CNSR":1,"EVNTFL":"N","CNSDTDSC":"LAST KNOWN ON-STUDY DATE","TRT01A":"Xanomeline Low Dose","TRT01AN":2,"SAFFL":"Y","ITTFL":"Y","SITEID":"715","AGE":77,"AGEGR1":"65-80","SEX":"F","RACE":"WHITE","ARMCD":"Xan_Lo","TRTSDT":"2013-02-16","TRTEDT":"2013-08-18"},{"STUDYID":"CDISCPILOT01","USUBJID":"01-715-1107","DOMAIN":"ADTTE","PARAMCD":"TTDERM","PARAM":"Time to First Dermatological TEAE (days)","PARAMN":1,"ADT":"2013-05-07","AVAL":71,"CNSR":0,"EVNTFL":"Y","CNSDTDSC":null,"TRT01A":"Xanomeline Low Dose","TRT01AN":2,"SAFFL":"Y","ITTFL":"Y","SITEID":"715","AGE":65,"AGEGR1":"65-80","SEX":"M","RACE":"WHITE","ARMCD":"Xan_Lo","TRTSDT":"2013-02-26","TRTEDT":"2013-05-07"},{"STUDYID":"CDISCPILOT01","USUBJID":"01-715-1155","DOMAIN":"ADTTE","PARAMCD":"TTDERM","PARAM":"Time to First Dermatological TEAE (days)","PARAMN":1,"ADT":"2014-01-25","AVAL":44,"CNSR":1,"EVNTFL":"N","CNSDTDSC":"LAST KNOWN ON-STUDY DATE","TRT01A":"Placebo","TRT01AN":1,"SAFFL":"Y","ITTFL":"Y","SITEID":"715","AGE":59,"AGEGR1":"<65","SEX":"F","RACE":"WHITE","ARMCD":"Pbo","TRTSDT":"2013-12-13","TRTEDT":"2014-01-25"},{"STUDYID":"CDISCPILOT01","USUBJID":"01-715-1207","DOMAIN":"ADTTE","PARAMCD":"TTDERM","PARAM":"Time to First Dermatological TEAE (days)","PARAMN":1,"ADT":"2013-05-27","AVAL":191,"CNSR":1,"EVNTFL":"N","CNSDTDSC":"LAST KNOWN ON-STUDY DATE","TRT01A":"Placebo","TRT01AN":1,"SAFFL":"Y","ITTFL":"Y","SITEID":"715","AGE":78,"AGEGR1":"65-80","SEX":"F","RACE":"WHITE","ARMCD":"Pbo","TRTSDT":"2012-11-18","TRTEDT":"2013-05-27"},{"STUDYID":"CDISCPILOT01","USUBJID":"01-715-1319","DOMAIN":"ADTTE","PARAMCD":"TTDERM","PARAM":"Time to First Dermatological TEAE (days)","PARAMN":1,"ADT":"2013-03-05","AVAL":17,"CNSR":1,"EVNTFL":"N","CNSDTDSC":"LAST KNOWN ON-STUDY DATE","TRT01A":"Xanomeline High Dose","TRT01AN":3,"SAFFL":"Y","ITTFL":"Y","SITEID":"715","AGE":65,"AGEGR1":"65-80","SEX":"M","RACE":"WHITE","ARMCD":"Xan_Hi","TRTSDT":"2013-02-17","TRTEDT":"2013-03-05"},{"STUDYID":"CDISCPILOT01","USUBJID":"01-715-1321","DOMAIN":"ADTTE","PARAMCD":"TTDERM","PARAM":"Time to First Dermatological TEAE (days)","PARAMN":1,"ADT":"2014-04-21","AVAL":70,"CNSR":1,"EVNTFL":"N","CNSDTDSC":"LAST KNOWN ON-STUDY DATE","TRT01A":"Xanomeline High Dose","TRT01AN":3,"SAFFL":"Y","ITTFL":"Y","SITEID":"715","AGE":75,"AGEGR1":"65-80","SEX":"F","RACE":"WHITE","ARMCD":"Xan_Hi","TRTSDT":"2014-02-11","TRTEDT":"2014-04-21"},{"STUDYID":"CDISCPILOT01","USUBJID":"01-715-1397","DOMAIN":"ADTTE","PARAMCD":"TTDERM","PARAM":"Time to First Dermatological TEAE (days)","PARAMN":1,"ADT":"2013-10-02","AVAL":183,"CNSR":1,"EVNTFL":"N","CNSDTDSC":"LAST KNOWN ON-STUDY DATE","TRT01A":"Placebo","TRT01AN":1,"SAFFL":"Y","ITTFL":"Y","SITEID":"715","AGE":76,"AGEGR1":"65-80","SEX":"F","RACE":"WHITE","ARMCD":"Pbo","TRTSDT":"2013-04-03","TRTEDT":"2013-10-02"},{"STUDYID":"CDISCPILOT01","USUBJID":"01-715-1405","DOMAIN":"ADTTE","PARAMCD":"TTDERM","PARAM":"Time to First Dermatological TEAE (days)","PARAMN":1,"ADT":"2013-07-08","AVAL":3,"CNSR":0,"EVNTFL":"Y","CNSDTDSC":null,"TRT01A":"Xanomeline Low Dose","TRT01AN":2,"SAFFL":"Y","ITTFL":"Y","SITEID":"715","AGE":69,"AGEGR1":"65-80","SEX":"M","RACE":"WHITE","ARMCD":"Xan_Lo","TRTSDT":"2013-07-06","TRTEDT":"2013-07-07"},{"STUDYID":"CDISCPILOT01","USUBJID":"01-716-1024","DOMAIN":"ADTTE","PARAMCD":"TTDERM","PARAM":"Time to First Dermatological TEAE (days)","PARAMN":1,"ADT":"2013-01-20","AVAL":196,"CNSR":1,"EVNTFL":"N","CNSDTDSC":"LAST KNOWN ON-STUDY DATE","TRT01A":"Placebo","TRT01AN":1,"SAFFL":"Y","ITTFL":"Y","SITEID":"716","AGE":87,"AGEGR1":">80","SEX":"F","RACE":"WHITE","ARMCD":"Pbo","TRTSDT":"2012-07-09","TRTEDT":"2013-01-20"},{"STUDYID":"CDISCPILOT01","USUBJID":"01-716-1026","DOMAIN":"ADTTE","PARAMCD":"TTDERM","PARAM":"Time to First Dermatological TEAE (days)","PARAMN":1,"ADT":"2014-04-17","AVAL":16,"CNSR":0,"EVNTFL":"Y","CNSDTDSC":null,"TRT01A":"Placebo","TRT01AN":1,"SAFFL":"Y","ITTFL":"Y","SITEID":"716","AGE":73,"AGEGR1":"65-80","SEX":"F","RACE":"WHITE","ARMCD":"Pbo","TRTSDT":"2014-04-02","TRTEDT":"2014-10-16"},{"STUDYID":"CDISCPILOT01","USUBJID":"01-716-1030","DOMAIN":"ADTTE","PARAMCD":"TTDERM","PARAM":"Time to First Dermatological TEAE (days)","PARAMN":1,"ADT":"2014-01-02","AVAL":6,"CNSR":1,"EVNTFL":"N","CNSDTDSC":"LAST KNOWN ON-STUDY DATE","TRT01A":"Xanomeline High Dose","TRT01AN":3,"SAFFL":"Y","ITTFL":"Y","SITEID":"716","AGE":83,"AGEGR1":">80","SEX":"F","RACE":"WHITE","ARMCD":"Xan_Hi","TRTSDT":"2013-12-28","TRTEDT":"2014-01-02"},{"STUDYID":"CDISCPILOT01","USUBJID":"01-716-1044","DOMAIN":"ADTTE","PARAMCD":"TTDERM","PARAM":"Time to First Dermatological TEAE (days)","PARAMN":1,"ADT":"2013-11-03","AVAL":191,"CNSR":1,"EVNTFL":"N","CNSDTDSC":"LAST KNOWN ON-STUDY DATE","TRT01A":"Placebo","TRT01AN":1,"SAFFL":"Y","ITTFL":"Y","SITEID":"716","AGE":74,"AGEGR1":"65-80","SEX":"M","RACE":"WHITE","ARMCD":"Pbo","TRTSDT":"2013-04-27","TRTEDT":"2013-11-03"},{"STUDYID":"CDISCPILOT01","USUBJID":"01-716-1063","DOMAIN":"ADTTE","PARAMCD":"TTDERM","PARAM":"Time to First Dermatological TEAE (days)","PARAMN":1,"ADT":"2013-05-09","AVAL":1,"CNSR":0,"EVNTFL":"Y","CNSDTDSC":null,"TRT01A":"Xanomeline Low Dose","TRT01AN":2,"SAFFL":"Y","ITTFL":"Y","SITEID":"716","AGE":80,"AGEGR1":"65-80","SEX":"M","RACE":"WHITE","ARMCD":"Xan_Lo","TRTSDT":"2013-05-09","TRTEDT":"2013-08-25"},{"STUDYID":"CDISCPILOT01","USUBJID":"01-716-1071","DOMAIN":"ADTTE","PARAMCD":"TTDERM","PARAM":"Time to First Dermatological TEAE (days)","PARAMN":1,"ADT":"2013-08-01","AVAL":55,"CNSR":1,"EVNTFL":"N","CNSDTDSC":"LAST KNOWN ON-STUDY DATE","TRT01A":"Xanomeline High Dose","TRT01AN":3,"SAFFL":"Y","ITTFL":"Y","SITEID":"716","AGE":78,"AGEGR1":"65-80","SEX":"F","RACE":"WHITE","ARMCD":"Xan_Hi","TRTSDT":"2013-06-08","TRTEDT":"2013-08-01"},{"STUDYID":"CDISCPILOT01","USUBJID":"01-716-1094","DOMAIN":"ADTTE","PARAMCD":"TTDERM","PARAM":"Time to First Dermatological TEAE (days)","PARAMN":1,"ADT":"2013-01-24","AVAL":37,"CNSR":1,"EVNTFL":"N","CNSDTDSC":"LAST KNOWN ON-STUDY DATE","TRT01A":"Xanomeline Low Dose","TRT01AN":2,"SAFFL":"Y","ITTFL":"Y","SITEID":"716","AGE":82,"AGEGR1":">80","SEX":"M","RACE":"WHITE","ARMCD":"Xan_Lo","TRTSDT":"2012-12-19","TRTEDT":"2013-01-24"},{"STUDYID":"CDISCPILOT01","USUBJID":"01-716-1103","DOMAIN":"ADTTE","PARAMCD":"TTDERM","PARAM":"Time to First Dermatological TEAE (days)","PARAMN":1,"ADT":"2014-07-09","AVAL":112,"CNSR":0,"EVNTFL":"Y","CNSDTDSC":null,"TRT01A":"Xanomeline Low Dose","TRT01AN":2,"SAFFL":"Y","ITTFL":"Y","SITEID":"716","AGE":79,"AGEGR1":"65-80","SEX":"M","RACE":"WHITE","ARMCD":"Xan_Lo","TRTSDT":"2014-03-20","TRTEDT":"2014-09-20"},{"STUDYID":"CDISCPILOT01","USUBJID":"01-716-1108","DOMAIN":"ADTTE","PARAMCD":"TTDERM","PARAM":"Time to First Dermatological TEAE (days)","PARAMN":1,"ADT":"2013-05-01","AVAL":79,"CNSR":0,"EVNTFL":"Y","CNSDTDSC":null,"TRT01A":"Placebo","TRT01AN":1,"SAFFL":"Y","ITTFL":"Y","SITEID":"716","AGE":86,"AGEGR1":">80","SEX":"F","RACE":"WHITE","ARMCD":"Pbo","TRTSDT":"2013-02-12","TRTEDT":"2013-08-10"},{"STUDYID":"CDISCPILOT01","USUBJID":"01-716-1151","DOMAIN":"ADTTE","PARAMCD":"TTDERM","PARAM":"Time to First Dermatological TEAE (days)","PARAMN":1,"ADT":"2013-03-15","AVAL":43,"CNSR":0,"EVNTFL":"Y","CNSDTDSC":null,"TRT01A":"Xanomeline Low Dose","TRT01AN":2,"SAFFL":"Y","ITTFL":"Y","SITEID":"716","AGE":83,"AGEGR1":">80","SEX":"F","RACE":"WHITE","ARMCD":"Xan_Lo","TRTSDT":"2013-02-01","TRTEDT":"2013-05-11"},{"STUDYID":"CDISCPILOT01","USUBJID":"01-716-1157","DOMAIN":"ADTTE","PARAMCD":"TTDERM","PARAM":"Time to First Dermatological TEAE (days)","PARAMN":1,"ADT":"2013-10-25","AVAL":24,"CNSR":0,"EVNTFL":"Y","CNSDTDSC":null,"TRT01A":"Xanomeline Low Dose","TRT01AN":2,"SAFFL":"Y","ITTFL":"Y","SITEID":"716","AGE":85,"AGEGR1":">80","SEX":"M","RACE":"WHITE","ARMCD":"Xan_Lo","TRTSDT":"2013-10-02","TRTEDT":"2014-04-04"},{"STUDYID":"CDISCPILOT01","USUBJID":"01-716-1160","DOMAIN":"ADTTE","PARAMCD":"TTDERM","PARAM":"Time to First Dermatological TEAE (days)","PARAMN":1,"ADT":"2013-05-09","AVAL":35,"CNSR":0,"EVNTFL":"Y","CNSDTDSC":null,"TRT01A":"Placebo","TRT01AN":1,"SAFFL":"Y","ITTFL":"Y","SITEID":"716","AGE":83,"AGEGR1":">80","SEX":"F","RACE":"WHITE","ARMCD":"Pbo","TRTSDT":"2013-04-05","TRTEDT":"2013-10-11"},{"STUDYID":"CDISCPILOT01","USUBJID":"01-716-1167","DOMAIN":"ADTTE","PARAMCD":"TTDERM","PARAM":"Time to First Dermatological TEAE (days)","PARAMN":1,"ADT":"2012-11-17","AVAL":41,"CNSR":0,"EVNTFL":"Y","CNSDTDSC":null,"TRT01A":"Xanomeline Low Dose","TRT01AN":2,"SAFFL":"Y","ITTFL":"Y","SITEID":"716","AGE":68,"AGEGR1":"65-80","SEX":"M","RACE":"WHITE","ARMCD":"Xan_Lo","TRTSDT":"2012-10-08","TRTEDT":"2013-04-12"},{"STUDYID":"CDISCPILOT01","USUBJID":"01-716-1177","DOMAIN":"ADTTE","PARAMCD":"TTDERM","PARAM":"Time to First Dermatological TEAE (days)","PARAMN":1,"ADT":"2015-03-05","AVAL":185,"CNSR":1,"EVNTFL":"N","CNSDTDSC":"LAST KNOWN ON-STUDY DATE","TRT01A":"Placebo","TRT01AN":1,"SAFFL":"Y","ITTFL":"Y","SITEID":"716","AGE":72,"AGEGR1":"65-80","SEX":"M","RACE":"WHITE","ARMCD":"Pbo","TRTSDT":"2014-09-02","TRTEDT":"2015-03-05"},{"STUDYID":"CDISCPILOT01","USUBJID":"01-716-1189","DOMAIN":"ADTTE","PARAMCD":"TTDERM","PARAM":"Time to First Dermatological TEAE (days)","PARAMN":1,"ADT":"2013-01-05","AVAL":89,"CNSR":0,"EVNTFL":"Y","CNSDTDSC":null,"TRT01A":"Xanomeline High Dose","TRT01AN":3,"SAFFL":"Y","ITTFL":"Y","SITEID":"716","AGE":81,"AGEGR1":">80","SEX":"M","RACE":"WHITE","ARMCD":"Xan_Hi","TRTSDT":"2012-10-09","TRTEDT":"2013-02-27"},{"STUDYID":"CDISCPILOT01","USUBJID":"01-716-1229","DOMAIN":"ADTTE","PARAMCD":"TTDERM","PARAM":"Time to First Dermatological TEAE (days)","PARAMN":1,"ADT":"2013-02-20","AVAL":1,"CNSR":0,"EVNTFL":"Y","CNSDTDSC":null,"TRT01A":"Xanomeline High Dose","TRT01AN":3,"SAFFL":"Y","ITTFL":"Y","SITEID":"716","AGE":73,"AGEGR1":"65-80","SEX":"F","RACE":"WHITE","ARMCD":"Xan_Hi","TRTSDT":"2013-02-20","TRTEDT":"2013-03-31"},{"STUDYID":"CDISCPILOT01","USUBJID":"01-716-1298","DOMAIN":"ADTTE","PARAMCD":"TTDERM","PARAM":"Time to First Dermatological TEAE (days)","PARAMN":1,"ADT":"2013-04-22","AVAL":15,"CNSR":0,"EVNTFL":"Y","CNSDTDSC":null,"TRT01A":"Xanomeline Low Dose","TRT01AN":2,"SAFFL":"Y","ITTFL":"Y","SITEID":"716","AGE":76,"AGEGR1":"65-80","SEX":"F","RACE":"WHITE","ARMCD":"Xan_Lo","TRTSDT":"2013-04-08","TRTEDT":"2013-06-28"},{"STUDYID":"CDISCPILOT01","USUBJID":"01-716-1308","DOMAIN":"ADTTE","PARAMCD":"TTDERM","PARAM":"Time to First Dermatological TEAE (days)","PARAMN":1,"ADT":"2013-09-20","AVAL":24,"CNSR":0,"EVNTFL":"Y","CNSDTDSC":null,"TRT01A":"Placebo","TRT01AN":1,"SAFFL":"Y","ITTFL":"Y","SITEID":"716","AGE":76,"AGEGR1":"65-80","SEX":"F","RACE":"WHITE","ARMCD":"Pbo","TRTSDT":"2013-08-28","TRTEDT":"2013-10-07"},{"STUDYID":"CDISCPILOT01","USUBJID":"01-716-1311","DOMAIN":"ADTTE","PARAMCD":"TTDERM","PARAM":"Time to First Dermatological TEAE (days)","PARAMN":1,"ADT":"2014-05-28","AVAL":15,"CNSR":0,"EVNTFL":"Y","CNSDTDSC":null,"TRT01A":"Xanomeline Low Dose","TRT01AN":2,"SAFFL":"Y","ITTFL":"Y","SITEID":"716","AGE":78,"AGEGR1":"65-80","SEX":"M","RACE":"WHITE","ARMCD":"Xan_Lo","TRTSDT":"2014-05-14","TRTEDT":"2014-09-21"},{"STUDYID":"CDISCPILOT01","USUBJID":"01-716-1364","DOMAIN":"ADTTE","PARAMCD":"TTDERM","PARAM":"Time to First Dermatological TEAE (days)","PARAMN":1,"ADT":"2013-08-18","AVAL":46,"CNSR":0,"EVNTFL":"Y","CNSDTDSC":null,"TRT01A":"Xanomeline High Dose","TRT01AN":3,"SAFFL":"Y","ITTFL":"Y","SITEID":"716","AGE":84,"AGEGR1":">80","SEX":"F","RACE":"WHITE","ARMCD":"Xan_Hi","TRTSDT":"2013-07-04","TRTEDT":"2014-01-09"},{"STUDYID":"CDISCPILOT01","USUBJID":"01-716-1373","DOMAIN":"ADTTE","PARAMCD":"TTDERM","PARAM":"Time to First Dermatological TEAE (days)","PARAMN":1,"ADT":"2012-12-15","AVAL":2,"CNSR":0,"EVNTFL":"Y","CNSDTDSC":null,"TRT01A":"Xanomeline High Dose","TRT01AN":3,"SAFFL":"Y","ITTFL":"Y","SITEID":"716","AGE":74,"AGEGR1":"65-80","SEX":"M","RACE":"WHITE","ARMCD":"Xan_Hi","TRTSDT":"2012-12-14","TRTEDT":"2013-02-27"},{"STUDYID":"CDISCPILOT01","USUBJID":"01-716-1418","DOMAIN":"ADTTE","PARAMCD":"TTDERM","PARAM":"Time to First Dermatological TEAE (days)","PARAMN":1,"ADT":"2013-05-05","AVAL":1,"CNSR":0,"EVNTFL":"Y","CNSDTDSC":null,"TRT01A":"Xanomeline High Dose","TRT01AN":3,"SAFFL":"Y","ITTFL":"Y","SITEID":"716","AGE":80,"AGEGR1":"65-80","SEX":"F","RACE":"WHITE","ARMCD":"Xan_Hi","TRTSDT":"2013-05-05","TRTEDT":"2013-11-20"},{"STUDYID":"CDISCPILOT01","USUBJID":"01-716-1441","DOMAIN":"ADTTE","PARAMCD":"TTDERM","PARAM":"Time to First Dermatological TEAE (days)","PARAMN":1,"ADT":"2014-05-11","AVAL":110,"CNSR":0,"EVNTFL":"Y","CNSDTDSC":null,"TRT01A":"Placebo","TRT01AN":1,"SAFFL":"Y","ITTFL":"Y","SITEID":"716","AGE":85,"AGEGR1":">80","SEX":"M","RACE":"WHITE","ARMCD":"Pbo","TRTSDT":"2014-01-22","TRTEDT":"2014-07-22"},{"STUDYID":"CDISCPILOT01","USUBJID":"01-716-1447","DOMAIN":"ADTTE","PARAMCD":"TTDERM","PARAM":"Time to First Dermatological TEAE (days)","PARAMN":1,"ADT":"2014-01-01","AVAL":17,"CNSR":0,"EVNTFL":"Y","CNSDTDSC":null,"TRT01A":"Xanomeline High Dose","TRT01AN":3,"SAFFL":"Y","ITTFL":"Y","SITEID":"716","AGE":72,"AGEGR1":"65-80","SEX":"F","RACE":"WHITE","ARMCD":"Xan_Hi","TRTSDT":"2013-12-16","TRTEDT":"2014-06-17"},{"STUDYID":"CDISCPILOT01","USUBJID":"01-717-1004","DOMAIN":"ADTTE","PARAMCD":"TTDERM","PARAM":"Time to First Dermatological TEAE (days)","PARAMN":1,"ADT":"2014-01-15","AVAL":2,"CNSR":0,"EVNTFL":"Y","CNSDTDSC":null,"TRT01A":"Xanomeline Low Dose","TRT01AN":2,"SAFFL":"Y","ITTFL":"Y","SITEID":"717","AGE":80,"AGEGR1":"65-80","SEX":"F","RACE":"WHITE","ARMCD":"Xan_Lo","TRTSDT":"2014-01-14","TRTEDT":"2014-07-16"},{"STUDYID":"CDISCPILOT01","USUBJID":"01-717-1109","DOMAIN":"ADTTE","PARAMCD":"TTDERM","PARAM":"Time to First Dermatological TEAE (days)","PARAMN":1,"ADT":"2014-02-15","AVAL":20,"CNSR":0,"EVNTFL":"Y","CNSDTDSC":null,"TRT01A":"Xanomeline High Dose","TRT01AN":3,"SAFFL":"Y","ITTFL":"Y","SITEID":"717","AGE":84,"AGEGR1":">80","SEX":"M","RACE":"WHITE","ARMCD":"Xan_Hi","TRTSDT":"2014-01-27","TRTEDT":"2014-07-28"},{"STUDYID":"CDISCPILOT01","USUBJID":"01-717-1174","DOMAIN":"ADTTE","PARAMCD":"TTDERM","PARAM":"Time to First Dermatological TEAE (days)","PARAMN":1,"ADT":"2013-01-26","AVAL":5,"CNSR":0,"EVNTFL":"Y","CNSDTDSC":null,"TRT01A":"Xanomeline High Dose","TRT01AN":3,"SAFFL":"Y","ITTFL":"Y","SITEID":"717","AGE":73,"AGEGR1":"65-80","SEX":"M","RACE":"WHITE","ARMCD":"Xan_Hi","TRTSDT":"2013-01-22","TRTEDT":"2013-07-24"},{"STUDYID":"CDISCPILOT01","USUBJID":"01-717-1201","DOMAIN":"ADTTE","PARAMCD":"TTDERM","PARAM":"Time to First Dermatological TEAE (days)","PARAMN":1,"ADT":"2013-12-19","AVAL":1,"CNSR":0,"EVNTFL":"Y","CNSDTDSC":null,"TRT01A":"Placebo","TRT01AN":1,"SAFFL":"Y","ITTFL":"Y","SITEID":"717","AGE":85,"AGEGR1":">80","SEX":"F","RACE":"WHITE","ARMCD":"Pbo","TRTSDT":"2013-12-19","TRTEDT":"2014-02-21"},{"STUDYID":"CDISCPILOT01","USUBJID":"01-717-1344","DOMAIN":"ADTTE","PARAMCD":"TTDERM","PARAM":"Time to First Dermatological TEAE (days)","PARAMN":1,"ADT":"2014-03-14","AVAL":63,"CNSR":1,"EVNTFL":"N","CNSDTDSC":"LAST KNOWN ON-STUDY DATE","TRT01A":"Placebo","TRT01AN":1,"SAFFL":"Y","ITTFL":"Y","SITEID":"717","AGE":64,"AGEGR1":"<65","SEX":"F","RACE":"WHITE","ARMCD":"Pbo","TRTSDT":"2014-01-11","TRTEDT":"2014-03-14"},{"STUDYID":"CDISCPILOT01","USUBJID":"01-717-1357","DOMAIN":"ADTTE","PARAMCD":"TTDERM","PARAM":"Time to First Dermatological TEAE (days)","PARAMN":1,"ADT":"2013-05-23","AVAL":23,"CNSR":0,"EVNTFL":"Y","CNSDTDSC":null,"TRT01A":"Xanomeline High Dose","TRT01AN":3,"SAFFL":"Y","ITTFL":"Y","SITEID":"717","AGE":77,"AGEGR1":"65-80","SEX":"M","RACE":"WHITE","ARMCD":"Xan_Hi","TRTSDT":"2013-05-01","TRTEDT":"2013-10-14"},{"STUDYID":"CDISCPILOT01","USUBJID":"01-717-1446","DOMAIN":"ADTTE","PARAMCD":"TTDERM","PARAM":"Time to First Dermatological TEAE (days)","PARAMN":1,"ADT":"2013-09-19","AVAL":19,"CNSR":0,"EVNTFL":"Y","CNSDTDSC":null,"TRT01A":"Xanomeline Low Dose","TRT01AN":2,"SAFFL":"Y","ITTFL":"Y","SITEID":"717","AGE":75,"AGEGR1":"65-80","SEX":"F","RACE":"WHITE","ARMCD":"Xan_Lo","TRTSDT":"2013-09-01","TRTEDT":"2014-03-03"},{"STUDYID":"CDISCPILOT01","USUBJID":"01-718-1066","DOMAIN":"ADTTE","PARAMCD":"TTDERM","PARAM":"Time to First Dermatological TEAE (days)","PARAMN":1,"ADT":"2013-07-16","AVAL":10,"CNSR":1,"EVNTFL":"N","CNSDTDSC":"LAST KNOWN ON-STUDY DATE","TRT01A":"Xanomeline Low Dose","TRT01AN":2,"SAFFL":"Y","ITTFL":"Y","SITEID":"718","AGE":79,"AGEGR1":"65-80","SEX":"F","RACE":"WHITE","ARMCD":"Xan_Lo","TRTSDT":"2013-07-07","TRTEDT":"2013-07-16"},{"STUDYID":"CDISCPILOT01","USUBJID":"01-718-1079","DOMAIN":"ADTTE","PARAMCD":"TTDERM","PARAM":"Time to First Dermatological TEAE (days)","PARAMN":1,"ADT":"2012-10-31","AVAL":43,"CNSR":1,"EVNTFL":"N","CNSDTDSC":"LAST KNOWN ON-STUDY DATE","TRT01A":"Xanomeline Low Dose","TRT01AN":2,"SAFFL":"Y","ITTFL":"Y","SITEID":"718","AGE":67,"AGEGR1":"65-80","SEX":"F","RACE":"WHITE","ARMCD":"Xan_Lo","TRTSDT":"2012-09-19","TRTEDT":"2012-10-31"},{"STUDYID":"CDISCPILOT01","USUBJID":"01-718-1101","DOMAIN":"ADTTE","PARAMCD":"TTDERM","PARAM":"Time to First Dermatological TEAE (days)","PARAMN":1,"ADT":"2013-04-14","AVAL":57,"CNSR":0,"EVNTFL":"Y","CNSDTDSC":null,"TRT01A":"Xanomeline High Dose","TRT01AN":3,"SAFFL":"Y","ITTFL":"Y","SITEID":"718","AGE":82,"AGEGR1":">80","SEX":"M","RACE":"BLACK OR AFRICAN AMERICAN","ARMCD":"Xan_Hi","TRTSDT":"2013-02-17","TRTEDT":"2013-07-31"},{"STUDYID":"CDISCPILOT01","USUBJID":"01-718-1139","DOMAIN":"ADTTE","PARAMCD":"TTDERM","PARAM":"Time to First Dermatological TEAE (days)","PARAMN":1,"ADT":"2013-11-17","AVAL":183,"CNSR":1,"EVNTFL":"N","CNSDTDSC":"LAST KNOWN ON-STUDY DATE","TRT01A":"Placebo","TRT01AN":1,"SAFFL":"Y","ITTFL":"Y","SITEID":"718","AGE":77,"AGEGR1":"65-80","SEX":"M","RACE":"WHITE","ARMCD":"Pbo","TRTSDT":"2013-05-19","TRTEDT":"2013-11-17"},{"STUDYID":"CDISCPILOT01","USUBJID":"01-718-1150","DOMAIN":"ADTTE","PARAMCD":"TTDERM","PARAM":"Time to First Dermatological TEAE (days)","PARAMN":1,"ADT":"2013-07-29","AVAL":192,"CNSR":1,"EVNTFL":"N","CNSDTDSC":"LAST KNOWN ON-STUDY DATE","TRT01A":"Placebo","TRT01AN":1,"SAFFL":"Y","ITTFL":"Y","SITEID":"718","AGE":73,"AGEGR1":"65-80","SEX":"F","RACE":"WHITE","ARMCD":"Pbo","TRTSDT":"2013-01-19","TRTEDT":"2013-07-29"},{"STUDYID":"CDISCPILOT01","USUBJID":"01-718-1170","DOMAIN":"ADTTE","PARAMCD":"TTDERM","PARAM":"Time to First Dermatological TEAE (days)","PARAMN":1,"ADT":"2013-10-11","AVAL":26,"CNSR":0,"EVNTFL":"Y","CNSDTDSC":null,"TRT01A":"Xanomeline Low Dose","TRT01AN":2,"SAFFL":"Y","ITTFL":"Y","SITEID":"718","AGE":80,"AGEGR1":"65-80","SEX":"F","RACE":"WHITE","ARMCD":"Xan_Lo","TRTSDT":"2013-09-16","TRTEDT":"2013-10-12"},{"STUDYID":"CDISCPILOT01","USUBJID":"01-718-1172","DOMAIN":"ADTTE","PARAMCD":"TTDERM","PARAM":"Time to First Dermatological TEAE (days)","PARAMN":1,"ADT":"2013-11-29","AVAL":70,"CNSR":1,"EVNTFL":"N","CNSDTDSC":"LAST KNOWN ON-STUDY DATE","TRT01A":"Placebo","TRT01AN":1,"SAFFL":"Y","ITTFL":"Y","SITEID":"718","AGE":74,"AGEGR1":"65-80","SEX":"M","RACE":"WHITE","ARMCD":"Pbo","TRTSDT":"2013-09-21","TRTEDT":"2013-11-29"},{"STUDYID":"CDISCPILOT01","USUBJID":"01-718-1250","DOMAIN":"ADTTE","PARAMCD":"TTDERM","PARAM":"Time to First Dermatological TEAE (days)","PARAMN":1,"ADT":"2014-01-31","AVAL":133,"CNSR":1,"EVNTFL":"N","CNSDTDSC":"LAST KNOWN ON-STUDY DATE","TRT01A":"Xanomeline Low Dose","TRT01AN":2,"SAFFL":"Y","ITTFL":"Y","SITEID":"718","AGE":82,"AGEGR1":">80","SEX":"F","RACE":"WHITE","ARMCD":"Xan_Lo","TRTSDT":"2013-09-21","TRTEDT":"2014-01-31"},{"STUDYID":"CDISCPILOT01","USUBJID":"01-718-1254","DOMAIN":"ADTTE","PARAMCD":"TTDERM","PARAM":"Time to First Dermatological TEAE (days)","PARAMN":1,"ADT":"2014-01-09","AVAL":184,"CNSR":1,"EVNTFL":"N","CNSDTDSC":"LAST KNOWN ON-STUDY DATE","TRT01A":"Xanomeline Low Dose","TRT01AN":2,"SAFFL":"Y","ITTFL":"Y","SITEID":"718","AGE":78,"AGEGR1":"65-80","SEX":"M","RACE":"WHITE","ARMCD":"Xan_Lo","TRTSDT":"2013-07-10","TRTEDT":"2014-01-09"},{"STUDYID":"CDISCPILOT01","USUBJID":"01-718-1328","DOMAIN":"ADTTE","PARAMCD":"TTDERM","PARAM":"Time to First Dermatological TEAE (days)","PARAMN":1,"ADT":"2013-04-18","AVAL":77,"CNSR":1,"EVNTFL":"N","CNSDTDSC":"LAST KNOWN ON-STUDY DATE","TRT01A":"Xanomeline High Dose","TRT01AN":3,"SAFFL":"Y","ITTFL":"Y","SITEID":"718","AGE":86,"AGEGR1":">80","SEX":"M","RACE":"WHITE","ARMCD":"Xan_Hi","TRTSDT":"2013-02-01","TRTEDT":"2013-04-18"},{"STUDYID":"CDISCPILOT01","USUBJID":"01-718-1355","DOMAIN":"ADTTE","PARAMCD":"TTDERM","PARAM":"Time to First Dermatological TEAE (days)","PARAMN":1,"ADT":"2013-03-08","AVAL":9,"CNSR":0,"EVNTFL":"Y","CNSDTDSC":null,"TRT01A":"Placebo","TRT01AN":1,"SAFFL":"Y","ITTFL":"Y","SITEID":"718","AGE":79,"AGEGR1":"65-80","SEX":"M","RACE":"WHITE","ARMCD":"Pbo","TRTSDT":"2013-02-28","TRTEDT":"2013-08-29"},{"STUDYID":"CDISCPILOT01","USUBJID":"01-718-1371","DOMAIN":"ADTTE","PARAMCD":"TTDERM","PARAM":"Time to First Dermatological TEAE (days)","PARAMN":1,"ADT":"2013-08-01","AVAL":98,"CNSR":1,"EVNTFL":"N","CNSDTDSC":"LAST KNOWN ON-STUDY DATE","TRT01A":"Xanomeline High Dose","TRT01AN":3,"SAFFL":"Y","ITTFL":"Y","SITEID":"718","AGE":69,"AGEGR1":"65-80","SEX":"F","RACE":"WHITE","ARMCD":"Xan_Hi","TRTSDT":"2013-04-26","TRTEDT":"2013-08-01"},{"STUDYID":"CDISCPILOT01","USUBJID":"01-718-1427","DOMAIN":"ADTTE","PARAMCD":"TTDERM","PARAM":"Time to First Dermatological TEAE (days)","PARAMN":1,"ADT":"2013-02-11","AVAL":57,"CNSR":1,"EVNTFL":"N","CNSDTDSC":"LAST KNOWN ON-STUDY DATE","TRT01A":"Xanomeline High Dose","TRT01AN":3,"SAFFL":"Y","ITTFL":"Y","SITEID":"718","AGE":74,"AGEGR1":"65-80","SEX":"F","RACE":"BLACK OR AFRICAN AMERICAN","ARMCD":"Xan_Hi","TRTSDT":"2012-12-17","TRTEDT":"2013-02-11"}]
