[{"STUDYID":"CDISCPILOT01","USUBJID":"01-701-1015","DOMAIN":"ADVS","PARAMCD":"SYSBP","PARAM":"Systolic Blood Pressure (Supine) (mmHg)","PARAMN":1,"ADT":"2013-12-26","ADY":-7,"AVISIT":"Screening","AVISITN":-2,"AVAL":131,"AVALU":"mmHg","BASE":130,"CHG":null,"PCHG":null,"ABLFL":"Y","TRT01A":"Placebo","TRT01AN":1,"SAFFL":"Y","ITTFL":"Y","SITEID":"701","AGE":63,"SEX":"F","RACE":"WHITE","ARMCD":"Pbo","TRTSDT":"2014-01-02","TRTEDT":"2014-07-02"},{"STUDYID":"CDISCPILOT01","USUBJID":"01-701-1015","DOMAIN":"ADVS","PARAMCD":"SYSBP","PARAM":"Systolic Blood Pressure (Supine) (mmHg)","PARAMN":1,"ADT":"2014-01-02","ADY":1,"AVISIT":"Baseline","AVISITN":0,"AVAL":130,"AVALU":"mmHg","BASE":130,"CHG":null,"PCHG":null,"ABLFL":"Y","TRT01A":"Placebo","TRT01AN":1,"SAFFL":"Y","ITTFL":"Y","SITEID":"701","AGE":63,"SEX":"F","RACE":"WHITE","ARMCD":"Pbo","TRTSDT":"2014-01-02","TRTEDT":"2014-07-02"},{"STUDYID":"CDISCPILOT01","USUBJID":"01-701-1015","DOMAIN":"ADVS","PARAMCD":"SYSBP","PARAM":"Systolic Blood Pressure (Supine) (mmHg)","PARAMN":1,"ADT":"2014-01-16","ADY":15,"AVISIT":"Week 2","AVISITN":2,"AVAL":114,"AVALU":"mmHg","BASE":130,"CHG":-16,"PCHG":-12.3077,"ABLFL":"Y","TRT01A":"Placebo","TRT01AN":1,"SAFFL":"Y","ITTFL":"Y","SITEID":"701","AGE":63,"SEX":"F","RACE":"WHITE","ARMCD":"Pbo","TRTSDT":"2014-01-02","TRTEDT":"2014-07-02"},{"STUDYID":"CDISCPILOT01","USUBJID":"01-701-1015","DOMAIN":"ADVS","PARAMCD":"SYSBP","PARAM":"Systolic Blood Pressure (Supine) (mmHg)","PARAMN":1,"ADT":"2014-01-30","ADY":29,"AVISIT":"Week 4","AVISITN":4,"AVAL":138,"AVALU":"mmHg","BASE":130,"CHG":8,"PCHG":6.1538,"ABLFL":"Y","TRT01A":"Placebo","TRT01AN":1,"SAFFL":"Y","ITTFL":"Y","SITEID":"701","AGE":63,"SEX":"F","RACE":"WHITE","ARMCD":"Pbo","TRTSDT":"2014-01-02","TRTEDT":"2014-07-02"},{"STUDYID":"CDISCPILOT01","USUBJID":"01-701-1015","DOMAIN":"ADVS","PARAMCD":"SYSBP","PARAM":"Systolic Blood Pressure (Supine) (mmHg)","PARAMN":1,"ADT":"2014-02-12","ADY":42,"AVISIT":"Week 6","AVISITN":6,"AVAL":148,"AVALU":"mmHg","BASE":130,"CHG":18,"PCHG":13.8462,"ABLFL":"Y","TRT01A":"Placebo","TRT01AN":1,"SAFFL":"Y","ITTFL":"Y","SITEID":"701","AGE":63,"SEX":"F","RACE":"WHITE","ARMCD":"Pbo","TRTSDT":"2014-01-02","TRTEDT":"2014-07-02"},{"STUDYID":"CDISCPILOT01","USUBJID":"01-701-1015","DOMAIN":"ADVS","PARAMCD":"SYSBP","PARAM":"Systolic Blood Pressure (Supine) (mmHg)","PARAMN":1,"ADT":"2014-03-05","ADY":63,"AVISIT":"Week 8","AVISITN":8,"AVAL":138,"AVALU":"mmHg","BASE":130,"CHG":8,"PCHG":6.1538,"ABLFL":"Y","TRT01A":"Placebo","TRT01AN":1,"SAFFL":"Y","ITTFL":"Y","SITEID":"701","AGE":63,"SEX":"F","RACE":"WHITE","ARMCD":"Pbo","TRTSDT":"2014-01-02","TRTEDT":"2014-07-02"},{"STUDYID":"CDISCPILOT01","USUBJID":"01-701-1015","DOMAIN":"ADVS","PARAMCD":"SYSBP","PARAM":"Systolic Blood Pressure (Supine) (mmHg)","PARAMN":1,"ADT":"2014-03-26","ADY":84,"AVISIT":"Week 12","AVISITN":12,"AVAL":139,"AVALU":"mmHg","BASE":130,"CHG":9,"PCHG":6.9231,"ABLFL":"Y","TRT01A":"Placebo","TRT01AN":1,"SAFFL":"Y","ITTFL":"Y","SITEID":"701","AGE":63,"SEX":"F","RACE":"WHITE","ARMCD":"Pbo","TRTSDT":"2014-01-02","TRTEDT":"2014-07-02"},{"STUDYID":"CDISCPILOT01","USUBJID":"01-701-1015","DOMAIN":"ADVS","PARAMCD":"SYSBP","PARAM":"Systolic Blood Pressure (Supine) (mmHg)","PARAMN":1,"ADT":"2014-05-07","ADY":126,"AVISIT":"Week 16","AVISITN":16,"AVAL":163,"AVALU":"mmHg","BASE":130,"CHG":33,"PCHG":25.3846,"ABLFL":"Y","TRT01A":"Placebo","TRT01AN":1,"SAFFL":"Y","ITTFL":"Y","SITEID":"701","AGE":63,"SEX":"F","RACE":"WHITE","ARMCD":"Pbo","TRTSDT":"2014-01-02","TRTEDT":"2014-07-02"},{"STUDYID":"CDISCPILOT01","USUBJID":"01-701-1015","DOMAIN":"ADVS","PARAMCD":"SYSBP","PARAM":"Systolic Blood Pressure (Supine) (mmHg)","PARAMN":1,"ADT":"2014-05-21","ADY":140,"AVISIT":"Week 20","AVISITN":20,"AVAL":137,"AVALU":"mmHg","BASE":130,"CHG":7,"PCHG":5.3846,"ABLFL":"Y","TRT01A":"Placebo","TRT01AN":1,"SAFFL":"Y","ITTFL":"Y","SITEID":"701","AGE":63,"SEX":"F","RACE":"WHITE","ARMCD":"Pbo","TRTSDT":"2014-01-02","TRTEDT":"2014-07-02"},{"STUDYID":"CDISCPILOT01","USUBJID":"01-701-1015","DOMAIN":"ADVS","PARAMCD":"SYSBP","PARAM":"Systolic Blood Pressure (Supine) (mmHg)","PARAMN":1,"ADT":"2014-06-18","ADY":168,"AVISIT":"Week 24","AVISITN":24,"AVAL":129,"AVALU":"mmHg","BASE":130,"CHG":-1,"PCHG":-0.7692,"ABLFL":"Y","TRT01A":"Placebo","TRT01AN":1,"SAFFL":"Y","ITTFL":"Y","SITEID":"701","AGE":63,"SEX":"F","RACE":"WHITE","ARMCD":"Pbo","TRTSDT":"2014-01-02","TRTEDT":"2014-07-02"},{"STUDYID":"CDISCPILOT01","USUBJID":"01-701-1015","DOMAIN":"ADVS","PARAMCD":"SYSBP","PARAM":"Systolic Blood Pressure (Supine) (mmHg)","PARAMN":1,"ADT":"2014-07-02","ADY":182,"AVISIT":"Week 26","AVISITN":26,"AVAL":127,"AVALU":"mmHg","BASE":130,"CHG":-3,"PCHG":-2.3077,"ABLFL":"Y","TRT01A":"Placebo","TRT01AN":1,"SAFFL":"Y","ITTFL":"Y","SITEID":"701","AGE":63,"SEX":"F","RACE":"WHITE","ARMCD":"Pbo","TRTSDT":"2014-01-02","TRTEDT":"2014-07-02"},{"STUDYID":"CDISCPILOT01","USUBJID":"01-701-1015","DOMAIN":"ADVS","PARAMCD":"VSSBPST","PARAM":"Systolic Blood Pressure (Standing) (mmHg)","PARAMN":2,"ADT":"2013-12-26","ADY":-7,"AVISIT":"Screening","AVISITN":-2,"AVAL":129,"AVALU":"mmHg","BASE":121,"CHG":null,"PCHG":null,"ABLFL":"Y","TRT01A":"Placebo","TRT01AN":1,"SAFFL":"Y","ITTFL":"Y","SITEID":"701","AGE":63,"SEX":"F","RACE":"WHITE","ARMCD":"Pbo","TRTSDT":"2014-01-02","TRTEDT":"2014-07-02"},{"STUDYID":"CDISCPILOT01","USUBJID":"01-701-1015","DOMAIN":"ADVS","PARAMCD":"VSSBPST","PARAM":"Systolic Blood Pressure (Standing) (mmHg)","PARAMN":2,"ADT":"2014-01-02","ADY":1,"AVISIT":"Baseline","AVISITN":0,"AVAL":121,"AVALU":"mmHg","BASE":121,"CHG":null,"PCHG":null,"ABLFL":"Y","TRT01A":"Placebo","TRT01AN":1,"SAFFL":"Y","ITTFL":"Y","SITEID":"701","AGE":63,"SEX":"F","RACE":"WHITE","ARMCD":"Pbo","TRTSDT":"2014-01-02","TRTEDT":"2014-07-02"},{"STUDYID":"CDISCPILOT01","USUBJID":"01-701-1015","DOMAIN":"ADVS","PARAMCD":"VSSBPST","PARAM":"Systolic Blood Pressure (Standing) (mmHg)","PARAMN":2,"ADT":"2014-01-16","ADY":15,"AVISIT":"Week 2","AVISITN":2,"AVAL":121,"AVALU":"mmHg","BASE":121,"CHG":0,"PCHG":0,"ABLFL":"Y","TRT01A":"Placebo","TRT01AN":1,"SAFFL":"Y","ITTFL":"Y","SITEID":"701","AGE":63,"SEX":"F","RACE":"WHITE","ARMCD":"Pbo","TRTSDT":"2014-01-02","TRTEDT":"2014-07-02"},{"STUDYID":"CDISCPILOT01","USUBJID":"01-701-1015","DOMAIN":"ADVS","PARAMCD":"VSSBPST","PARAM":"Systolic Blood Pressure (Standing) (mmHg)","PARAMN":2,"ADT":"2014-01-30","ADY":29,"AVISIT":"Week 4","AVISITN":4,"AVAL":137,"AVALU":"mmHg","BASE":121,"CHG":16,"PCHG":13.2231,"ABLFL":"Y","TRT01A":"Placebo","TRT01AN":1,"SAFFL":"Y","ITTFL":"Y","SITEID":"701","AGE":63,"SEX":"F","RACE":"WHITE","ARMCD":"Pbo","TRTSDT":"2014-01-02","TRTEDT":"2014-07-02"},{"STUDYID":"CDISCPILOT01","USUBJID":"01-701-1015","DOMAIN":"ADVS","PARAMCD":"VSSBPST","PARAM":"Systolic Blood Pressure (Standing) (mmHg)","PARAMN":2,"ADT":"2014-02-12","ADY":42,"AVISIT":"Week 6","AVISITN":6,"AVAL":137,"AVALU":"mmHg","BASE":121,"CHG":16,"PCHG":13.2231,"ABLFL":"Y","TRT01A":"Placebo","TRT01AN":1,"SAFFL":"Y","ITTFL":"Y","SITEID":"701","AGE":63,"SEX":"F","RACE":"WHITE","ARMCD":"Pbo","TRTSDT":"2014-01-02","TRTEDT":"2014-07-02"},{"STUDYID":"CDISCPILOT01","USUBJID":"01-701-1015","DOMAIN":"ADVS","PARAMCD":"VSSBPST","PARAM":"Systolic Blood Pressure (Standing) (mmHg)","PARAMN":2,"ADT":"2014-03-05","ADY":63,"AVISIT":"Week 8","AVISITN":8,"AVAL":146,"AVALU":"mmHg","BASE":121,"CHG":25,"PCHG":20.6612,"ABLFL":"Y","TRT01A":"Placebo","TRT01AN":1,"SAFFL":"Y","ITTFL":"Y","SITEID":"701","AGE":63,"SEX":"F","RACE":"WHITE","ARMCD":"Pbo","TRTSDT":"2014-01-02","TRTEDT":"2014-07-02"},{"STUDYID":"CDISCPILOT01","USUBJID":"01-701-1015","DOMAIN":"ADVS","PARAMCD":"VSSBPST","PARAM":"Systolic Blood Pressure (Standing) (mmHg)","PARAMN":2,"ADT":"2014-03-26","ADY":84,"AVISIT":"Week 12","AVISITN":12,"AVAL":146,"AVALU":"mmHg","BASE":121,"CHG":25,"PCHG":20.6612,"ABLFL":"Y","TRT01A":"Placebo","TRT01AN":1,"SAFFL":"Y","ITTFL":"Y","SITEID":"701","AGE":63,"SEX":"F","RACE":"WHITE","ARMCD":"Pbo","TRTSDT":"2014-01-02","TRTEDT":"2014-07-02"},{"STUDYID":"CDISCPILOT01","USUBJID":"01-701-1015","DOMAIN":"ADVS","PARAMCD":"VSSBPST","PARAM":"Systolic Blood Pressure (Standing) (mmHg)","PARAMN":2,"ADT":"2014-05-07","ADY":126,"AVISIT":"Week 16","AVISITN":16,"AVAL":145,"AVALU":"mmHg","BASE":121,"CHG":24,"PCHG":19.8347,"ABLFL":"Y","TRT01A":"Placebo","TRT01AN":1,"SAFFL":"Y","ITTFL":"Y","SITEID":"701","AGE":63,"SEX":"F","RACE":"WHITE","ARMCD":"Pbo","TRTSDT":"2014-01-02","TRTEDT":"2014-07-02"},{"STUDYID":"CDISCPILOT01","USUBJID":"01-701-1015","DOMAIN":"ADVS","PARAMCD":"VSSBPST","PARAM":"Systolic Blood Pressure (Standing) (mmHg)","PARAMN":2,"ADT":"2014-05-21","ADY":140,"AVISIT":"Week 20","AVISITN":20,"AVAL":139,"AVALU":"mmHg","BASE":121,"CHG":18,"PCHG":14.876,"ABLFL":"Y","TRT01A":"Placebo","TRT01AN":1,"SAFFL":"Y","ITTFL":"Y","SITEID":"701","AGE":63,"SEX":"F","RACE":"WHITE","ARMCD":"Pbo","TRTSDT":"2014-01-02","TRTEDT":"2014-07-02"},{"STUDYID":"CDISCPILOT01","USUBJID":"01-701-1015","DOMAIN":"ADVS","PARAMCD":"VSSBPST","PARAM":"Systolic Blood Pressure (Standing) (mmHg)","PARAMN":2,"ADT":"2014-06-18","ADY":168,"AVISIT":"Week 24","AVISITN":24,"AVAL":131,"AVALU":"mmHg","BASE":121,"CHG":10,"PCHG":8.2645,"ABLFL":"Y","TRT01A":"Placebo","TRT01AN":1,"SAFFL":"Y","ITTFL":"Y","SITEID":"701","AGE":63,"SEX":"F","RACE":"WHITE","ARMCD":"Pbo","TRTSDT":"2014-01-02","TRTEDT":"2014-07-02"},{"STUDYID":"CDISCPILOT01","USUBJID":"01-701-1015","DOMAIN":"ADVS","PARAMCD":"VSSBPST","PARAM":"Systolic Blood Pressure (Standing) (mmHg)","PARAMN":2,"ADT":"2014-07-02","ADY":182,"AVISIT":"Week 26","AVISITN":26,"AVAL":128,"AVALU":"mmHg","BASE":121,"CHG":7,"PCHG":5.7851,"ABLFL":"Y","TRT01A":"Placebo","TRT01AN":1,"SAFFL":"Y","ITTFL":"Y","SITEID":"701","AGE":63,"SEX":"F","RACE":"WHITE","ARMCD":"Pbo","TRTSDT":"2014-01-02","TRTEDT":"2014-07-02"},{"STUDYID":"CDISCPILOT01","USUBJID":"01-701-1015","DOMAIN":"ADVS","PARAMCD":"DIABP","PARAM":"Diastolic Blood Pressure (Supine) (mmHg)","PARAMN":3,"ADT":"2013-12-26","ADY":-7,"AVISIT":"Screening","AVISITN":-2,"AVAL":64,"AVALU":"mmHg","BASE":56,"CHG":null,"PCHG":null,"ABLFL":"Y","TRT01A":"Placebo","TRT01AN":1,"SAFFL":"Y","ITTFL":"Y","SITEID":"701","AGE":63,"SEX":"F","RACE":"WHITE","ARMCD":"Pbo","TRTSDT":"2014-01-02","TRTEDT":"2014-07-02"},{"STUDYID":"CDISCPILOT01","USUBJID":"01-701-1015","DOMAIN":"ADVS","PARAMCD":"DIABP","PARAM":"Diastolic Blood Pressure (Supine) (mmHg)","PARAMN":3,"ADT":"2014-01-02","ADY":1,"AVISIT":"Baseline","AVISITN":0,"AVAL":56,"AVALU":"mmHg","BASE":56,"CHG":null,"PCHG":null,"ABLFL":"Y","TRT01A":"Placebo","TRT01AN":1,"SAFFL":"Y","ITTFL":"Y","SITEID":"701","AGE":63,"SEX":"F","RACE":"WHITE","ARMCD":"Pbo","TRTSDT":"2014-01-02","TRTEDT":"2014-07-02"},{"STUDYID":"CDISCPILOT01","USUBJID":"01-701-1015","DOMAIN":"ADVS","PARAMCD":"DIABP","PARAM":"Diastolic Blood Pressure (Supine) (mmHg)","PARAMN":3,"ADT":"2014-01-16","ADY":15,"AVISIT":"Week 2","AVISITN":2,"AVAL":56,"AVALU":"mmHg","BASE":56,"CHG":0,"PCHG":0,"ABLFL":"Y","TRT01A":"Placebo","TRT01AN":1,"SAFFL":"Y","ITTFL":"Y","SITEID":"701","AGE":63,"SEX":"F","RACE":"WHITE","ARMCD":"Pbo","TRTSDT":"2014-01-02","TRTEDT":"2014-07-02"},{"STUDYID":"CDISCPILOT01","USUBJID":"01-701-1015","DOMAIN":"ADVS","PARAMCD":"DIABP","PARAM":"Diastolic Blood Pressure (Supine) (mmHg)","PARAMN":3,"ADT":"2014-01-30","ADY":29,"AVISIT":"Week 4","AVISITN":4,"AVAL":64,"AVALU":"mmHg","BASE":56,"CHG":8,"PCHG":14.2857,"ABLFL":"Y","TRT01A":"Placebo","TRT01AN":1,"SAFFL":"Y","ITTFL":"Y","SITEID":"701","AGE":63,"SEX":"F","RACE":"WHITE","ARMCD":"Pbo","TRTSDT":"2014-01-02","TRTEDT":"2014-07-02"},{"STUDYID":"CDISCPILOT01","USUBJID":"01-701-1015","DOMAIN":"ADVS","PARAMCD":"DIABP","PARAM":"Diastolic Blood Pressure (Supine) (mmHg)","PARAMN":3,"ADT":"2014-02-12","ADY":42,"AVISIT":"Week 6","AVISITN":6,"AVAL":55,"AVALU":"mmHg","BASE":56,"CHG":-1,"PCHG":-1.7857,"ABLFL":"Y","TRT01A":"Placebo","TRT01AN":1,"SAFFL":"Y","ITTFL":"Y","SITEID":"701","AGE":63,"SEX":"F","RACE":"WHITE","ARMCD":"Pbo","TRTSDT":"2014-01-02","TRTEDT":"2014-07-02"},{"STUDYID":"CDISCPILOT01","USUBJID":"01-701-1015","DOMAIN":"ADVS","PARAMCD":"DIABP","PARAM":"Diastolic Blood Pressure (Supine) (mmHg)","PARAMN":3,"ADT":"2014-03-05","ADY":63,"AVISIT":"Week 8","AVISITN":8,"AVAL":67,"AVALU":"mmHg","BASE":56,"CHG":11,"PCHG":19.6429,"ABLFL":"Y","TRT01A":"Placebo","TRT01AN":1,"SAFFL":"Y","ITTFL":"Y","SITEID":"701","AGE":63,"SEX":"F","RACE":"WHITE","ARMCD":"Pbo","TRTSDT":"2014-01-02","TRTEDT":"2014-07-02"},{"STUDYID":"CDISCPILOT01","USUBJID":"01-701-1015","DOMAIN":"ADVS","PARAMCD":"DIABP","PARAM":"Diastolic Blood Pressure (Supine) (mmHg)","PARAMN":3,"ADT":"2014-03-26","ADY":84,"AVISIT":"Week 12","AVISITN":12,"AVAL":68,"AVALU":"mmHg","BASE":56,"CHG":12,"PCHG":21.4286,"ABLFL":"Y","TRT01A":"Placebo","TRT01AN":1,"SAFFL":"Y","ITTFL":"Y","SITEID":"701","AGE":63,"SEX":"F","RACE":"WHITE","ARMCD":"Pbo","TRTSDT":"2014-01-02","TRTEDT":"2014-07-02"},{"STUDYID":"CDISCPILOT01","USUBJID":"01-701-1015","DOMAIN":"ADVS","PARAMCD":"DIABP","PARAM":"Diastolic Blood Pressure (Supine) (mmHg)","PARAMN":3,"ADT":"2014-05-07","ADY":126,"AVISIT":"Week 16","AVISITN":16,"AVAL":66,"AVALU":"mmHg","BASE":56,"CHG":10,"PCHG":17.8571,"ABLFL":"Y","TRT01A":"Placebo","TRT01AN":1,"SAFFL":"Y","ITTFL":"Y","SITEID":"701","AGE":63,"SEX":"F","RACE":"WHITE","ARMCD":"Pbo","TRTSDT":"2014-01-02","TRTEDT":"2014-07-02"},{"STUDYID":"CDISCPILOT01","USUBJID":"01-701-1015","DOMAIN":"ADVS","PARAMCD":"DIABP","PARAM":"Diastolic Blood Pressure (Supine) (mmHg)","PARAMN":3,"ADT":"2014-05-21","ADY":140,"AVISIT":"Week 20","AVISITN":20,"AVAL":67,"AVALU":"mmHg","BASE":56,"CHG":11,"PCHG":19.6429,"ABLFL":"Y","TRT01A":"Placebo","TRT01AN":1,"SAFFL":"Y","ITTFL":"Y","SITEID":"701","AGE":63,"SEX":"F","RACE":"WHITE","ARMCD":"Pbo","TRTSDT":"2014-01-02","TRTEDT":"2014-07-02"},{"STUDYID":"CDISCPILOT01","USUBJID":"01-701-1015","DOMAIN":"ADVS","PARAMCD":"DIABP","PARAM":"Diastolic Blood Pressure (Supine) (mmHg)","PARAMN":3,"ADT":"2014-06-18","ADY":168,"AVISIT":"Week 24","AVISITN":24,"AVAL":63,"AVALU":"mmHg","BASE":56,"CHG":7,"PCHG":12.5,"ABLFL":"Y","TRT01A":"Placebo","TRT01AN":1,"SAFFL":"Y","ITTFL":"Y","SITEID":"701","AGE":63,"SEX":"F","RACE":"WHITE","ARMCD":"Pbo","TRTSDT":"2014-01-02","TRTEDT":"2014-07-02"},{"STUDYID":"CDISCPILOT01","USUBJID":"01-701-1015","DOMAIN":"ADVS","PARAMCD":"DIABP","PARAM":"Diastolic Blood Pressure (Supine) (mmHg)","PARAMN":3,"ADT":"2014-07-02","ADY":182,"AVISIT":"Week 26","AVISITN":26,"AVAL":61,"AVALU":"mmHg","BASE":56,"CHG":5,"PCHG":8.9286,"ABLFL":"Y","TRT01A":"Placebo","TRT01AN":1,"SAFFL":"Y","ITTFL":"Y","SITEID":"701","AGE":63,"SEX":"F","RACE":"WHITE","ARMCD":"Pbo","TRTSDT":"2014-01-02","TRTEDT":"2014-07-02"},{"STUDYID":"CDISCPILOT01","USUBJID":"01-701-1015","DOMAIN":"ADVS","PARAMCD":"VSDBPST","PARAM":"Diastolic Blood Pressure (Standing) (mmHg)","PARAMN":4,"ADT":"2013-12-26","ADY":-7,"AVISIT":"Screening","AVISITN":-2,"AVAL":83,"AVALU":"mmHg","BASE":51,"CHG":null,"PCHG":null,"ABLFL":"Y","TRT01A":"Placebo","TRT01AN":1,"SAFFL":"Y","ITTFL":"Y","SITEID":"701","AGE":63,"SEX":"F","RACE":"WHITE","ARMCD":"Pbo","TRTSDT":"2014-01-02","TRTEDT":"2014-07-02"},{"STUDYID":"CDISCPILOT01","USUBJID":"01-701-1015","DOMAIN":"ADVS","PARAMCD":"VSDBPST","PARAM":"Diastolic Blood Pressure (Standing) (mmHg)","PARAMN":4,"ADT":"2014-01-02","ADY":1,"AVISIT":"Baseline","AVISITN":0,"AVAL":51,"AVALU":"mmHg","BASE":51,"CHG":null,"PCHG":null,"ABLFL":"Y","TRT01A":"Placebo","TRT01AN":1,"SAFFL":"Y","ITTFL":"Y","SITEID":"701","AGE":63,"SEX":"F","RACE":"WHITE","ARMCD":"Pbo","TRTSDT":"2014-01-02","TRTEDT":"2014-07-02"},{"STUDYID":"CDISCPILOT01","USUBJID":"01-701-1015","DOMAIN":"ADVS","PARAMCD":"VSDBPST","PARAM":"Diastolic Blood Pressure (Standing) (mmHg)","PARAMN":4,"ADT":"2014-01-16","ADY":15,"AVISIT":"Week 2","AVISITN":2,"AVAL":50,"AVALU":"mmHg","BASE":51,"CHG":-1,"PCHG":-1.9608,"ABLFL":"Y","TRT01A":"Placebo","TRT01AN":1,"SAFFL":"Y","ITTFL":"Y","SITEID":"701","AGE":63,"SEX":"F","RACE":"WHITE","ARMCD":"Pbo","TRTSDT":"2014-01-02","TRTEDT":"2014-07-02"},{"STUDYID":"CDISCPILOT01","USUBJID":"01-701-1015","DOMAIN":"ADVS","PARAMCD":"VSDBPST","PARAM":"Diastolic Blood Pressure (Standing) (mmHg)","PARAMN":4,"ADT":"2014-01-30","ADY":29,"AVISIT":"Week 4","AVISITN":4,"AVAL":55,"AVALU":"mmHg","BASE":51,"CHG":4,"PCHG":7.8431,"ABLFL":"Y","TRT01A":"Placebo","TRT01AN":1,"SAFFL":"Y","ITTFL":"Y","SITEID":"701","AGE":63,"SEX":"F","RACE":"WHITE","ARMCD":"Pbo","TRTSDT":"2014-01-02","TRTEDT":"2014-07-02"},{"STUDYID":"CDISCPILOT01","USUBJID":"01-701-1015","DOMAIN":"ADVS","PARAMCD":"VSDBPST","PARAM":"Diastolic Blood Pressure (Standing) (mmHg)","PARAMN":4,"ADT":"2014-02-12","ADY":42,"AVISIT":"Week 6","AVISITN":6,"AVAL":63,"AVALU":"mmHg","BASE":51,"CHG":12,"PCHG":23.5294,"ABLFL":"Y","TRT01A":"Placebo","TRT01AN":1,"SAFFL":"Y","ITTFL":"Y","SITEID":"701","AGE":63,"SEX":"F","RACE":"WHITE","ARMCD":"Pbo","TRTSDT":"2014-01-02","TRTEDT":"2014-07-02"},{"STUDYID":"CDISCPILOT01","USUBJID":"01-701-1015","DOMAIN":"ADVS","PARAMCD":"VSDBPST","PARAM":"Diastolic Blood Pressure (Standing) (mmHg)","PARAMN":4,"ADT":"2014-03-05","ADY":63,"AVISIT":"Week 8","AVISITN":8,"AVAL":62,"AVALU":"mmHg","BASE":51,"CHG":11,"PCHG":21.5686,"ABLFL":"Y","TRT01A":"Placebo","TRT01AN":1,"SAFFL":"Y","ITTFL":"Y","SITEID":"701","AGE":63,"SEX":"F","RACE":"WHITE","ARMCD":"Pbo","TRTSDT":"2014-01-02","TRTEDT":"2014-07-02"},{"STUDYID":"CDISCPILOT01","USUBJID":"01-701-1015","DOMAIN":"ADVS","PARAMCD":"VSDBPST","PARAM":"Diastolic Blood Pressure (Standing) (mmHg)","PARAMN":4,"ADT":"2014-03-26","ADY":84,"AVISIT":"Week 12","AVISITN":12,"AVAL":60,"AVALU":"mmHg","BASE":51,"CHG":9,"PCHG":17.6471,"ABLFL":"Y","TRT01A":"Placebo","TRT01AN":1,"SAFFL":"Y","ITTFL":"Y","SITEID":"701","AGE":63,"SEX":"F","RACE":"WHITE","ARMCD":"Pbo","TRTSDT":"2014-01-02","TRTEDT":"2014-07-02"},{"STUDYID":"CDISCPILOT01","USUBJID":"01-701-1015","DOMAIN":"ADVS","PARAMCD":"VSDBPST","PARAM":"Diastolic Blood Pressure (Standing) (mmHg)","PARAMN":4,"ADT":"2014-05-07","ADY":126,"AVISIT":"Week 16","AVISITN":16,"AVAL":68,"AVALU":"mmHg","BASE":51,"CHG":17,"PCHG":33.3333,"ABLFL":"Y","TRT01A":"Placebo","TRT01AN":1,"SAFFL":"Y","ITTFL":"Y","SITEID":"701","AGE":63,"SEX":"F","RACE":"WHITE","ARMCD":"Pbo","TRTSDT":"2014-01-02","TRTEDT":"2014-07-02"},{"STUDYID":"CDISCPILOT01","USUBJID":"01-701-1015","DOMAIN":"ADVS","PARAMCD":"VSDBPST","PARAM":"Diastolic Blood Pressure (Standing) (mmHg)","PARAMN":4,"ADT":"2014-05-21","ADY":140,"AVISIT":"Week 20","AVISITN":20,"AVAL":65,"AVALU":"mmHg","BASE":51,"CHG":14,"PCHG":27.451,"ABLFL":"Y","TRT01A":"Placebo","TRT01AN":1,"SAFFL":"Y","ITTFL":"Y","SITEID":"701","AGE":63,"SEX":"F","RACE":"WHITE","ARMCD":"Pbo","TRTSDT":"2014-01-02","TRTEDT":"2014-07-02"},{"STUDYID":"CDISCPILOT01","USUBJID":"01-701-1015","DOMAIN":"ADVS","PARAMCD":"VSDBPST","PARAM":"Diastolic Blood Pressure (Standing) (mmHg)","PARAMN":4,"ADT":"2014-06-18","ADY":168,"AVISIT":"Week 24","AVISITN":24,"AVAL":57,"AVALU":"mmHg","BASE":51,"CHG":6,"PCHG":11.7647,"ABLFL":"Y","TRT01A":"Placebo","TRT01AN":1,"SAFFL":"Y","ITTFL":"Y","SITEID":"701","AGE":63,"SEX":"F","RACE":"WHITE","ARMCD":"Pbo","TRTSDT":"2014-01-02","TRTEDT":"2014-07-02"},{"STUDYID":"CDISCPILOT01","USUBJID":"01-701-1015","DOMAIN":"ADVS","PARAMCD":"VSDBPST","PARAM":"Diastolic Blood Pressure (Standing) (mmHg)","PARAMN":4,"ADT":"2014-07-02","ADY":182,"AVISIT":"Week 26","AVISITN":26,"AVAL":59,"AVALU":"mmHg","BASE":51,"CHG":8,"PCHG":15.6863,"ABLFL":"Y","TRT01A":"Placebo","TRT01AN":1,"SAFFL":"Y","ITTFL":"Y","SITEID":"701","AGE":63,"SEX":"F","RACE":"WHITE","ARMCD":"Pbo","TRTSDT":"2014-01-02","TRTEDT":"2014-07-02"},{"STUDYID":"CDISCPILOT01","USUBJID":"01-701-1015","DOMAIN":"ADVS","PARAMCD":"PULSE","PARAM":"Pulse Rate (Supine) (beats/min)","PARAMN":5,"ADT":"2013-12-26","ADY":-7,"AVISIT":"Screening","AVISITN":-2,"AVAL":57,"AVALU":"BEATS/MIN","BASE":56,"CHG":null,"PCHG":null,"ABLFL":"Y","TRT01A":"Placebo","TRT01AN":1,"SAFFL":"Y","ITTFL":"Y","SITEID":"701","AGE":63,"SEX":"F","RACE":"WHITE","ARMCD":"Pbo","TRTSDT":"2014-01-02","TRTEDT":"2014-07-02"},{"STUDYID":"CDISCPILOT01","USUBJID":"01-701-1015","DOMAIN":"ADVS","PARAMCD":"PULSE","PARAM":"Pulse Rate (Supine) (beats/min)","PARAMN":5,"ADT":"2014-01-02","ADY":1,"AVISIT":"Baseline","AVISITN":0,"AVAL":56,"AVALU":"BEATS/MIN","BASE":56,"CHG":null,"PCHG":null,"ABLFL":"Y","TRT01A":"Placebo","TRT01AN":1,"SAFFL":"Y","ITTFL":"Y","SITEID":"701","AGE":63,"SEX":"F","RACE":"WHITE","ARMCD":"Pbo","TRTSDT":"2014-01-02","TRTEDT":"2014-07-02"},{"STUDYID":"CDISCPILOT01","USUBJID":"01-701-1015","DOMAIN":"ADVS","PARAMCD":"PULSE","PARAM":"Pulse Rate (Supine) (beats/min)","PARAMN":5,"ADT":"2014-01-16","ADY":15,"AVISIT":"Week 2","AVISITN":2,"AVAL":58,"AVALU":"BEATS/MIN","BASE":56,"CHG":2,"PCHG":3.5714,"ABLFL":"Y","TRT01A":"Placebo","TRT01AN":1,"SAFFL":"Y","ITTFL":"Y","SITEID":"701","AGE":63,"SEX":"F","RACE":"WHITE","ARMCD":"Pbo","TRTSDT":"2014-01-02","TRTEDT":"2014-07-02"},{"STUDYID":"CDISCPILOT01","USUBJID":"01-701-1015","DOMAIN":"ADVS","PARAMCD":"PULSE","PARAM":"Pulse Rate (Supine) (beats/min)","PARAMN":5,"ADT":"2014-01-30","ADY":29,"AVISIT":"Week 4","AVISITN":4,"AVAL":59,"AVALU":"BEATS/MIN","BASE":56,"CHG":3,"PCHG":5.3571,"ABLFL":"Y","TRT01A":"Placebo","TRT01AN":1,"SAFFL":"Y","ITTFL":"Y","SITEID":"701","AGE":63,"SEX":"F","RACE":"WHITE","ARMCD":"Pbo","TRTSDT":"2014-01-02","TRTEDT":"2014-07-02"},{"STUDYID":"CDISCPILOT01","USUBJID":"01-701-1015","DOMAIN":"ADVS","PARAMCD":"PULSE","PARAM":"Pulse Rate (Supine) (beats/min)","PARAMN":5,"ADT":"2014-02-12","ADY":42,"AVISIT":"Week 6","AVISITN":6,"AVAL":55,"AVALU":"BEATS/MIN","BASE":56,"CHG":-1,"PCHG":-1.7857,"ABLFL":"Y","TRT01A":"Placebo","TRT01AN":1,"SAFFL":"Y","ITTFL":"Y","SITEID":"701","AGE":63,"SEX":"F","RACE":"WHITE","ARMCD":"Pbo","TRTSDT":"2014-01-02","TRTEDT":"2014-07-02"},{"STUDYID":"CDISCPILOT01","USUBJID":"01-701-1015","DOMAIN":"ADVS","PARAMCD":"PULSE","PARAM":"Pulse Rate (Supine) (beats/min)","PARAMN":5,"ADT":"2014-03-05","ADY":63,"AVISIT":"Week 8","AVISITN":8,"AVAL":57,"AVALU":"BEATS/MIN","BASE":56,"CHG":1,"PCHG":1.7857,"ABLFL":"Y","TRT01A":"Placebo","TRT01AN":1,"SAFFL":"Y","ITTFL":"Y","SITEID":"701","AGE":63,"SEX":"F","RACE":"WHITE","ARMCD":"Pbo","TRTSDT":"2014-01-02","TRTEDT":"2014-07-02"},{"STUDYID":"CDISCPILOT01","USUBJID":"01-701-1015","DOMAIN":"ADVS","PARAMCD":"PULSE","PARAM":"Pulse Rate (Supine) (beats/min)","PARAMN":5,"ADT":"2014-03-26","ADY":84,"AVISIT":"Week 12","AVISITN":12,"AVAL":54,"AVALU":"BEATS/MIN","BASE":56,"CHG":-2,"PCHG":-3.5714,"ABLFL":"Y","TRT01A":"Placebo","TRT01AN":1,"SAFFL":"Y","ITTFL":"Y","SITEID":"701","AGE":63,"SEX":"F","RACE":"WHITE","ARMCD":"Pbo","TRTSDT":"2014-01-02","TRTEDT":"2014-07-02"},{"STUDYID":"CDISCPILOT01","USUBJID":"01-701-1015","DOMAIN":"ADVS","PARAMCD":"PULSE","PARAM":"Pulse Rate (Supine) (beats/min)","PARAMN":5,"ADT":"2014-05-07","ADY":126,"AVISIT":"Week 16","AVISITN":16,"AVAL":60,"AVALU":"BEATS/MIN","BASE":56,"CHG":4,"PCHG":7.1429,"ABLFL":"Y","TRT01A":"Placebo","TRT01AN":1,"SAFFL":"Y","ITTFL":"Y","SITEID":"701","AGE":63,"SEX":"F","RACE":"WHITE","ARMCD":"Pbo","TRTSDT":"2014-01-02","TRTEDT":"2014-07-02"},{"STUDYID":"CDISCPILOT01","USUBJID":"01-701-1015","DOMAIN":"ADVS","PARAMCD":"PULSE","PARAM":"Pulse Rate (Supine) (beats/min)","PARAMN":5,"ADT":"2014-05-21","ADY":140,"AVISIT":"Week 20","AVISITN":20,"AVAL":54,"AVALU":"BEATS/MIN","BASE":56,"CHG":-2,"PCHG":-3.5714,"ABLFL":"Y","TRT01A":"Placebo","TRT01AN":1,"SAFFL":"Y","ITTFL":"Y","SITEID":"701","AGE":63,"SEX":"F","RACE":"WHITE","ARMCD":"Pbo","TRTSDT":"2014-01-02","TRTEDT":"2014-07-02"},{"STUDYID":"CDISCPILOT01","USUBJID":"01-701-1015","DOMAIN":"ADVS","PARAMCD":"PULSE","PARAM":"Pulse Rate (Supine) (beats/min)","PARAMN":5,"ADT":"2014-06-18","ADY":168,"AVISIT":"Week 24","AVISITN":24,"AVAL":55,"AVALU":"BEATS/MIN","BASE":56,"CHG":-1,"PCHG":-1.7857,"ABLFL":"Y","TRT01A":"Placebo","TRT01AN":1,"SAFFL":"Y","ITTFL":"Y","SITEID":"701","AGE":63,"SEX":"F","RACE":"WHITE","ARMCD":"Pbo","TRTSDT":"2014-01-02","TRTEDT":"2014-07-02"},{"STUDYID":"CDISCPILOT01","USUBJID":"01-701-1015","DOMAIN":"ADVS","PARAMCD":"PULSE","PARAM":"Pulse Rate (Supine) (beats/min)","PARAMN":5,"ADT":"2014-07-02","ADY":182,"AVISIT":"Week 26","AVISITN":26,"AVAL":60,"AVALU":"BEATS/MIN","BASE":56,"CHG":4,"PCHG":7.1429,"ABLFL":"Y","TRT01A":"Placebo","TRT01AN":1,"SAFFL":"Y","ITTFL":"Y","SITEID":"701","AGE":63,"SEX":"F","RACE":"WHITE","ARMCD":"Pbo","TRTSDT":"2014-01-02","TRTEDT":"2014-07-02"},{"STUDYID":"CDISCPILOT01","USUBJID":"01-701-1015","DOMAIN":"ADVS","PARAMCD":"VSPULST","PARAM":"Pulse Rate (Standing) (beats/min)","PARAMN":6,"ADT":"2013-12-26","ADY":-7,"AVISIT":"Screening","AVISITN":-2,"AVAL":62,"AVALU":"BEATS/MIN","BASE":59,"CHG":null,"PCHG":null,"ABLFL":"Y","TRT01A":"Placebo","TRT01AN":1,"SAFFL":"Y","ITTFL":"Y","SITEID":"701","AGE":63,"SEX":"F","RACE":"WHITE","ARMCD":"Pbo","TRTSDT":"2014-01-02","TRTEDT":"2014-07-02"},{"STUDYID":"CDISCPILOT01","USUBJID":"01-701-1015","DOMAIN":"ADVS","PARAMCD":"VSPULST","PARAM":"Pulse Rate (Standing) (beats/min)","PARAMN":6,"ADT":"2014-01-02","ADY":1,"AVISIT":"Baseline","AVISITN":0,"AVAL":59,"AVALU":"BEATS/MIN","BASE":59,"CHG":null,"PCHG":null,"ABLFL":"Y","TRT01A":"Placebo","TRT01AN":1,"SAFFL":"Y","ITTFL":"Y","SITEID":"701","AGE":63,"SEX":"F","RACE":"WHITE","ARMCD":"Pbo","TRTSDT":"2014-01-02","TRTEDT":"2014-07-02"},{"STUDYID":"CDISCPILOT01","USUBJID":"01-701-1015","DOMAIN":"ADVS","PARAMCD":"VSPULST","PARAM":"Pulse Rate (Standing) (beats/min)","PARAMN":6,"ADT":"2014-01-16","ADY":15,"AVISIT":"Week 2","AVISITN":2,"AVAL":61,"AVALU":"BEATS/MIN","BASE":59,"CHG":2,"PCHG":3.3898,"ABLFL":"Y","TRT01A":"Placebo","TRT01AN":1,"SAFFL":"Y","ITTFL":"Y","SITEID":"701","AGE":63,"SEX":"F","RACE":"WHITE","ARMCD":"Pbo","TRTSDT":"2014-01-02","TRTEDT":"2014-07-02"},{"STUDYID":"CDISCPILOT01","USUBJID":"01-701-1015","DOMAIN":"ADVS","PARAMCD":"VSPULST","PARAM":"Pulse Rate (Standing) (beats/min)","PARAMN":6,"ADT":"2014-01-30","ADY":29,"AVISIT":"Week 4","AVISITN":4,"AVAL":62,"AVALU":"BEATS/MIN","BASE":59,"CHG":3,"PCHG":5.0847,"ABLFL":"Y","TRT01A":"Placebo","TRT01AN":1,"SAFFL":"Y","ITTFL":"Y","SITEID":"701","AGE":63,"SEX":"F","RACE":"WHITE","ARMCD":"Pbo","TRTSDT":"2014-01-02","TRTEDT":"2014-07-02"},{"STUDYID":"CDISCPILOT01","USUBJID":"01-701-1015","DOMAIN":"ADVS","PARAMCD":"VSPULST","PARAM":"Pulse Rate (Standing) (beats/min)","PARAMN":6,"ADT":"2014-02-12","ADY":42,"AVISIT":"Week 6","AVISITN":6,"AVAL":56,"AVALU":"BEATS/MIN","BASE":59,"CHG":-3,"PCHG":-5.0847,"ABLFL":"Y","TRT01A":"Placebo","TRT01AN":1,"SAFFL":"Y","ITTFL":"Y","SITEID":"701","AGE":63,"SEX":"F","RACE":"WHITE","ARMCD":"Pbo","TRTSDT":"2014-01-02","TRTEDT":"2014-07-02"},{"STUDYID":"CDISCPILOT01","USUBJID":"01-701-1015","DOMAIN":"ADVS","PARAMCD":"VSPULST","PARAM":"Pulse Rate (Standing) (beats/min)","PARAMN":6,"ADT":"2014-03-05","ADY":63,"AVISIT":"Week 8","AVISITN":8,"AVAL":60,"AVALU":"BEATS/MIN","BASE":59,"CHG":1,"PCHG":1.6949,"ABLFL":"Y","TRT01A":"Placebo","TRT01AN":1,"SAFFL":"Y","ITTFL":"Y","SITEID":"701","AGE":63,"SEX":"F","RACE":"WHITE","ARMCD":"Pbo","TRTSDT":"2014-01-02","TRTEDT":"2014-07-02"},{"STUDYID":"CDISCPILOT01","USUBJID":"01-701-1015","DOMAIN":"ADVS","PARAMCD":"VSPULST","PARAM":"Pulse Rate (Standing) (beats/min)","PARAMN":6,"ADT":"2014-03-26","ADY":84,"AVISIT":"Week 12","AVISITN":12,"AVAL":53,"AVALU":"BEATS/MIN","BASE":59,"CHG":-6,"PCHG":-10.1695,"ABLFL":"Y","TRT01A":"Placebo","TRT01AN":1,"SAFFL":"Y","ITTFL":"Y","SITEID":"701","AGE":63,"SEX":"F","RACE":"WHITE","ARMCD":"Pbo","TRTSDT":"2014-01-02","TRTEDT":"2014-07-02"},{"STUDYID":"CDISCPILOT01","USUBJID":"01-701-1015","DOMAIN":"ADVS","PARAMCD":"VSPULST","PARAM":"Pulse Rate (Standing) (beats/min)","PARAMN":6,"ADT":"2014-05-07","ADY":126,"AVISIT":"Week 16","AVISITN":16,"AVAL":55,"AVALU":"BEATS/MIN","BASE":59,"CHG":-4,"PCHG":-6.7797,"ABLFL":"Y","TRT01A":"Placebo","TRT01AN":1,"SAFFL":"Y","ITTFL":"Y","SITEID":"701","AGE":63,"SEX":"F","RACE":"WHITE","ARMCD":"Pbo","TRTSDT":"2014-01-02","TRTEDT":"2014-07-02"},{"STUDYID":"CDISCPILOT01","USUBJID":"01-701-1015","DOMAIN":"ADVS","PARAMCD":"VSPULST","PARAM":"Pulse Rate (Standing) (beats/min)","PARAMN":6,"ADT":"2014-05-21","ADY":140,"AVISIT":"Week 20","AVISITN":20,"AVAL":59,"AVALU":"BEATS/MIN","BASE":59,"CHG":0,"PCHG":0,"ABLFL":"Y","TRT01A":"Placebo","TRT01AN":1,"SAFFL":"Y","ITTFL":"Y","SITEID":"701","AGE":63,"SEX":"F","RACE":"WHITE","ARMCD":"Pbo","TRTSDT":"2014-01-02","TRTEDT":"2014-07-02"},{"STUDYID":"CDISCPILOT01","USUBJID":"01-701-1015","DOMAIN":"ADVS","PARAMCD":"VSPULST","PARAM":"Pulse Rate (Standing) (beats/min)","PARAMN":6,"ADT":"2014-06-18","ADY":168,"AVISIT":"Week 24","AVISITN":24,"AVAL":57,"AVALU":"BEATS/MIN","BASE":59,"CHG":-2,"PCHG":-3.3898,"ABLFL":"Y","TRT01A":"Placebo","TRT01AN":1,"SAFFL":"Y","ITTFL":"Y","SITEID":"701","AGE":63,"SEX":"F","RACE":"WHITE","ARMCD":"Pbo","TRTSDT":"2014-01-02","TRTEDT":"2014-07-02"},{"STUDYID":"CDISCPILOT01","USUBJID":"01-701-1015","DOMAIN":"ADVS","PARAMCD":"VSPULST","PARAM":"Pulse Rate (Standing) (beats/min)","PARAMN":6,"ADT":"2014-07-02","ADY":182,"AVISIT":"Week 26","AVISITN":26,"AVAL":61,"AVALU":"BEATS/MIN","BASE":59,"CHG":2,"PCHG":3.3898,"ABLFL":"Y","TRT01A":"Placebo","TRT01AN":1,"SAFFL":"Y","ITTFL":"Y","SITEID":"701","AGE":63,"SEX":"F","RACE":"WHITE","ARMCD":"Pbo","TRTSDT":"2014-01-02","TRTEDT":"2014-07-02"},{"STUDYID":"CDISCPILOT01","USUBJID":"01-701-1015","DOMAIN":"ADVS","PARAMCD":"WEIGHT","PARAM":"Weight (kg)","PARAMN":7,"ADT":"2013-12-26","ADY":-7,"AVISIT":"Screening","AVISITN":-2,"AVAL":53.98,"AVALU":"kg","BASE":54.43,"CHG":null,"PCHG":null,"ABLFL":"Y","TRT01A":"Placebo","TRT01AN":1,"SAFFL":"Y","ITTFL":"Y","SITEID":"701","AGE":63,"SEX":"F","RACE":"WHITE","ARMCD":"Pbo","TRTSDT":"2014-01-02","TRTEDT":"2014-07-02"},{"STUDYID":"CDISCPILOT01","USUBJID":"01-701-1015","DOMAIN":"ADVS","PARAMCD":"WEIGHT","PARAM":"Weight (kg)","PARAMN":7,"ADT":"2014-01-02","ADY":1,"AVISIT":"Baseline","AVISITN":0,"AVAL":54.43,"AVALU":"kg","BASE":54.43,"CHG":null,"PCHG":null,"ABLFL":"Y","TRT01A":"Placebo","TRT01AN":1,"SAFFL":"Y","ITTFL":"Y","SITEID":"701","AGE":63,"SEX":"F","RACE":"WHITE","ARMCD":"Pbo","TRTSDT":"2014-01-02","TRTEDT":"2014-07-02"},{"STUDYID":"CDISCPILOT01","USUBJID":"01-701-1015","DOMAIN":"ADVS","PARAMCD":"WEIGHT","PARAM":"Weight (kg)","PARAMN":7,"ADT":"2014-01-16","ADY":15,"AVISIT":"Week 2","AVISITN":2,"AVAL":53.07,"AVALU":"kg","BASE":54.43,"CHG":-1.36,"PCHG":-2.4986,"ABLFL":"Y","TRT01A":"Placebo","TRT01AN":1,"SAFFL":"Y","ITTFL":"Y","SITEID":"701","AGE":63,"SEX":"F","RACE":"WHITE","ARMCD":"Pbo","TRTSDT":"2014-01-02","TRTEDT":"2014-07-02"},{"STUDYID":"CDISCPILOT01","USUBJID":"01-701-1015","DOMAIN":"ADVS","PARAMCD":"WEIGHT","PARAM":"Weight (kg)","PARAMN":7,"ADT":"2014-01-30","ADY":29,"AVISIT":"Week 4","AVISITN":4,"AVAL":53.98,"AVALU":"kg","BASE":54.43,"CHG":-0.45,"PCHG":-0.8267,"ABLFL":"Y","TRT01A":"Placebo","TRT01AN":1,"SAFFL":"Y","ITTFL":"Y","SITEID":"701","AGE":63,"SEX":"F","RACE":"WHITE","ARMCD":"Pbo","TRTSDT":"2014-01-02","TRTEDT":"2014-07-02"},{"STUDYID":"CDISCPILOT01","USUBJID":"01-701-1015","DOMAIN":"ADVS","PARAMCD":"WEIGHT","PARAM":"Weight (kg)","PARAMN":7,"ADT":"2014-02-12","ADY":42,"AVISIT":"Week 6","AVISITN":6,"AVAL":53.07,"AVALU":"kg","BASE":54.43,"CHG":-1.36,"PCHG":-2.4986,"ABLFL":"Y","TRT01A":"Placebo","TRT01AN":1,"SAFFL":"Y","ITTFL":"Y","SITEID":"701","AGE":63,"SEX":"F","RACE":"WHITE","ARMCD":"Pbo","TRTSDT":"2014-01-02","TRTEDT":"2014-07-02"},{"STUDYID":"CDISCPILOT01","USUBJID":"01-701-1015","DOMAIN":"ADVS","PARAMCD":"WEIGHT","PARAM":"Weight (kg)","PARAMN":7,"ADT":"2014-03-05","ADY":63,"AVISIT":"Week 8","AVISITN":8,"AVAL":53.07,"AVALU":"kg","BASE":54.43,"CHG":-1.36,"PCHG":-2.4986,"ABLFL":"Y","TRT01A":"Placebo","TRT01AN":1,"SAFFL":"Y","ITTFL":"Y","SITEID":"701","AGE":63,"SEX":"F","RACE":"WHITE","ARMCD":"Pbo","TRTSDT":"2014-01-02","TRTEDT":"2014-07-02"},{"STUDYID":"CDISCPILOT01","USUBJID":"01-701-1015","DOMAIN":"ADVS","PARAMCD":"WEIGHT","PARAM":"Weight (kg)","PARAMN":7,"ADT":"2014-03-26","ADY":84,"AVISIT":"Week 12","AVISITN":12,"AVAL":53.07,"AVALU":"kg","BASE":54.43,"CHG":-1.36,"PCHG":-2.4986,"ABLFL":"Y","TRT01A":"Placebo","TRT01AN":1,"SAFFL":"Y","ITTFL":"Y","SITEID":"701","AGE":63,"SEX":"F","RACE":"WHITE","ARMCD":"Pbo","TRTSDT":"2014-01-02","TRTEDT":"2014-07-02"},{"STUDYID":"CDISCPILOT01","USUBJID":"01-701-1015","DOMAIN":"ADVS","PARAMCD":"WEIGHT","PARAM":"Weight (kg)","PARAMN":7,"ADT":"2014-05-07","ADY":126,"AVISIT":"Week 16","AVISITN":16,"AVAL":53.07,"AVALU":"kg","BASE":54.43,"CHG":-1.36,"PCHG":-2.4986,"ABLFL":"Y","TRT01A":"Placebo","TRT01AN":1,"SAFFL":"Y","ITTFL":"Y","SITEID":"701","AGE":63,"SEX":"F","RACE":"WHITE","ARMCD":"Pbo","TRTSDT":"2014-01-02","TRTEDT":"2014-07-02"},{"STUDYID":"CDISCPILOT01","USUBJID":"01-701-1015","DOMAIN":"ADVS","PARAMCD":"WEIGHT","PARAM":"Weight (kg)","PARAMN":7,"ADT":"2014-05-21","ADY":140,"AVISIT":"Week 20","AVISITN":20,"AVAL":53.07,"AVALU":"kg","BASE":54.43,"CHG":-1.36,"PCHG":-2.4986,"ABLFL":"Y","TRT01A":"Placebo","TRT01AN":1,"SAFFL":"Y","ITTFL":"Y","SITEID":"701","AGE":63,"SEX":"F","RACE":"WHITE","ARMCD":"Pbo","TRTSDT":"2014-01-02","TRTEDT":"2014-07-02"},{"STUDYID":"CDISCPILOT01","USUBJID":"01-701-1015","DOMAIN":"ADVS","PARAMCD":"WEIGHT","PARAM":"Weight (kg)","PARAMN":7,"ADT":"2014-06-18","ADY":168,"AVISIT":"Week 24","AVISITN":24,"AVAL":53.07,"AVALU":"kg","BASE":54.43,"CHG":-1.36,"PCHG":-2.4986,"ABLFL":"Y","TRT01A":"Placebo","TRT01AN":1,"SAFFL":"Y","ITTFL":"Y","SITEID":"701","AGE":63,"SEX":"F","RACE":"WHITE","ARMCD":"Pbo","TRTSDT":"2014-01-02","TRTEDT":"2014-07-02"},{"STUDYID":"CDISCPILOT01","USUBJID":"01-701-1015","DOMAIN":"ADVS","PARAMCD":"WEIGHT","PARAM":"Weight (kg)","PARAMN":7,"ADT":"2014-07-02","ADY":182,"AVISIT":"Week 26","AVISITN":26,"AVAL":53.52,"AVALU":"kg","BASE":54.43,"CHG":-0.91,"PCHG":-1.6719,"ABLFL":"Y","TRT01A":"Placebo","TRT01AN":1,"SAFFL":"Y","ITTFL":"Y","SITEID":"701","AGE":63,"SEX":"F","RACE":"WHITE","ARMCD":"Pbo","TRTSDT":"2014-01-02","TRTEDT":"2014-07-02"},{"STUDYID":"CDISCPILOT01","USUBJID":"01-701-1015","DOMAIN":"ADVS","PARAMCD":"HEIGHT","PARAM":"Height (cm)","PARAMN":8,"ADT":"2013-12-26","ADY":-7,"AVISIT":"Screening","AVISITN":-2,"AVAL":147.32,"AVALU":"cm","BASE":147.32,"CHG":null,"PCHG":null,"ABLFL":"Y","TRT01A":"Placebo","TRT01AN":1,"SAFFL":"Y","ITTFL":"Y","SITEID":"701","AGE":63,"SEX":"F","RACE":"WHITE","ARMCD":"Pbo","TRTSDT":"2014-01-02","TRTEDT":"2014-07-02"},{"STUDYID":"CDISCPILOT01","USUBJID":"01-701-1015","DOMAIN":"ADVS","PARAMCD":"TEMP","PARAM":"Temperature (C)","PARAMN":9,"ADT":"2013-12-26","ADY":-7,"AVISIT":"Screening","AVISITN":-2,"AVAL":36.06,"AVALU":"C","BASE":36.22,"CHG":null,"PCHG":null,"ABLFL":"Y","TRT01A":"Placebo","TRT01AN":1,"SAFFL":"Y","ITTFL":"Y","SITEID":"701","AGE":63,"SEX":"F","RACE":"WHITE","ARMCD":"Pbo","TRTSDT":"2014-01-02","TRTEDT":"2014-07-02"},{"STUDYID":"CDISCPILOT01","USUBJID":"01-701-1015","DOMAIN":"ADVS","PARAMCD":"TEMP","PARAM":"Temperature (C)","PARAMN":9,"ADT":"2014-01-02","ADY":1,"AVISIT":"Baseline","AVISITN":0,"AVAL":36.22,"AVALU":"C","BASE":36.22,"CHG":null,"PCHG":null,"ABLFL":"Y","TRT01A":"Placebo","TRT01AN":1,"SAFFL":"Y","ITTFL":"Y","SITEID":"701","AGE":63,"SEX":"F","RACE":"WHITE","ARMCD":"Pbo","TRTSDT":"2014-01-02","TRTEDT":"2014-07-02"},{"STUDYID":"CDISCPILOT01","USUBJID":"01-701-1015","DOMAIN":"ADVS","PARAMCD":"TEMP","PARAM":"Temperature (C)","PARAMN":9,"ADT":"2014-01-16","ADY":15,"AVISIT":"Week 2","AVISITN":2,"AVAL":36.5,"AVALU":"C","BASE":36.22,"CHG":0.28,"PCHG":0.7731,"ABLFL":"Y","TRT01A":"Placebo","TRT01AN":1,"SAFFL":"Y","ITTFL":"Y","SITEID":"701","AGE":63,"SEX":"F","RACE":"WHITE","ARMCD":"Pbo","TRTSDT":"2014-01-02","TRTEDT":"2014-07-02"},{"STUDYID":"CDISCPILOT01","USUBJID":"01-701-1015","DOMAIN":"ADVS","PARAMCD":"TEMP","PARAM":"Temperature (C)","PARAMN":9,"ADT":"2014-01-30","ADY":29,"AVISIT":"Week 4","AVISITN":4,"AVAL":36.11,"AVALU":"C","BASE":36.22,"CHG":-0.11,"PCHG":-0.3037,"ABLFL":"Y","TRT01A":"Placebo","TRT01AN":1,"SAFFL":"Y","ITTFL":"Y","SITEID":"701","AGE":63,"SEX":"F","RACE":"WHITE","ARMCD":"Pbo","TRTSDT":"2014-01-02","TRTEDT":"2014-07-02"},{"STUDYID":"CDISCPILOT01","USUBJID":"01-701-1015","DOMAIN":"ADVS","PARAMCD":"TEMP","PARAM":"Temperature (C)","PARAMN":9,"ADT":"2014-02-12","ADY":42,"AVISIT":"Week 6","AVISITN":6,"AVAL":36.33,"AVALU":"C","BASE":36.22,"CHG":0.11,"PCHG":0.3037,"ABLFL":"Y","TRT01A":"Placebo","TRT01AN":1,"SAFFL":"Y","ITTFL":"Y","SITEID":"701","AGE":63,"SEX":"F","RACE":"WHITE","ARMCD":"Pbo","TRTSDT":"2014-01-02","TRTEDT":"2014-07-02"},{"STUDYID":"CDISCPILOT01","USUBJID":"01-701-1015","DOMAIN":"ADVS","PARAMCD":"TEMP","PARAM":"Temperature (C)","PARAMN":9,"ADT":"2014-03-05","ADY":63,"AVISIT":"Week 8","AVISITN":8,"AVAL":36.67,"AVALU":"C","BASE":36.22,"CHG":0.45,"PCHG":1.2424,"ABLFL":"Y","TRT01A":"Placebo","TRT01AN":1,"SAFFL":"Y","ITTFL":"Y","SITEID":"701","AGE":63,"SEX":"F","RACE":"WHITE","ARMCD":"Pbo","TRTSDT":"2014-01-02","TRTEDT":"2014-07-02"},{"STUDYID":"CDISCPILOT01","USUBJID":"01-701-1015","DOMAIN":"ADVS","PARAMCD":"TEMP","PARAM":"Temperature (C)","PARAMN":9,"ADT":"2014-03-26","ADY":84,"AVISIT":"Week 12","AVISITN":12,"AVAL":36.33,"AVALU":"C","BASE":36.22,"CHG":0.11,"PCHG":0.3037,"ABLFL":"Y","TRT01A":"Placebo","TRT01AN":1,"SAFFL":"Y","ITTFL":"Y","SITEID":"701","AGE":63,"SEX":"F","RACE":"WHITE","ARMCD":"Pbo","TRTSDT":"2014-01-02","TRTEDT":"2014-07-02"},{"STUDYID":"CDISCPILOT01","USUBJID":"01-701-1015","DOMAIN":"ADVS","PARAMCD":"TEMP","PARAM":"Temperature (C)","PARAMN":9,"ADT":"2014-05-07","ADY":126,"AVISIT":"Week 16","AVISITN":16,"AVAL":36.61,"AVALU":"C","BASE":36.22,"CHG":0.39,"PCHG":1.0768,"ABLFL":"Y","TRT01A":"Placebo","TRT01AN":1,"SAFFL":"Y","ITTFL":"Y","SITEID":"701","AGE":63,"SEX":"F","RACE":"WHITE","ARMCD":"Pbo","TRTSDT":"2014-01-02","TRTEDT":"2014-07-02"},{"STUDYID":"CDISCPILOT01","USUBJID":"01-701-1015","DOMAIN":"ADVS","PARAMCD":"TEMP","PARAM":"Temperature (C)","PARAMN":9,"ADT":"2014-05-21","ADY":140,"AVISIT":"Week 20","AVISITN":20,"AVAL":36.33,"AVALU":"C","BASE":36.22,"CHG":0.11,"PCHG":0.3037,"ABLFL":"Y","TRT01A":"Placebo","TRT01AN":1,"SAFFL":"Y","ITTFL":"Y","SITEID":"701","AGE":63,"SEX":"F","RACE":"WHITE","ARMCD":"Pbo","TRTSDT":"2014-01-02","TRTEDT":"2014-07-02"},{"STUDYID":"CDISCPILOT01","USUBJID":"01-701-1015","DOMAIN":"ADVS","PARAMCD":"TEMP","PARAM":"Temperature (C)","PARAMN":9,"ADT":"2014-06-18","ADY":168,"AVISIT":"Week 24","AVISITN":24,"AVAL":36.5,"AVALU":"C","BASE":36.22,"CHG":0.28,"PCHG":0.7731,"ABLFL":"Y","TRT01A":"Placebo","TRT01AN":1,"SAFFL":"Y","ITTFL":"Y","SITEID":"701","AGE":63,"SEX":"F","RACE":"WHITE","ARMCD":"Pbo","TRTSDT":"2014-01-02","TRTEDT":"2014-07-02"},{"STUDYID":"CDISCPILOT01","USUBJID":"01-701-1015","DOMAIN":"ADVS","PARAMCD":"TEMP","PARAM":"Temperature (C)","PARAMN":9,"ADT":"2014-07-02","ADY":182,"AVISIT":"Week 26","AVISITN":26,"AVAL":36.22,"AVALU":"C","BASE":36.22,"CHG":0,"PCHG":0,"ABLFL":"Y","TRT01A":"Placebo","TRT01AN":1,"SAFFL":"Y","ITTFL":"Y","SITEID":"701","AGE":63,"SEX":"F","RACE":"WHITE","ARMCD":"Pbo","TRTSDT":"2014-01-02","TRTEDT":"2014-07-02"},{"STUDYID":"CDISCPILOT01","USUBJID":"01-701-1023","DOMAIN":"ADVS","PARAMCD":"SYSBP","PARAM":"Systolic Blood Pressure (Supine) (mmHg)","PARAMN":1,"ADT":"2012-07-22","ADY":-14,"AVISIT":"Screening","AVISITN":-2,"AVAL":130,"AVALU":"mmHg","BASE":130,"CHG":null,"PCHG":null,"ABLFL":"Y","TRT01A":"Placebo","TRT01AN":1,"SAFFL":"Y","ITTFL":"Y","SITEID":"701","AGE":64,"SEX":"M","RACE":"WHITE","ARMCD":"Pbo","TRTSDT":"2012-08-05","TRTEDT":"2012-09-01"},{"STUDYID":"CDISCPILOT01","USUBJID":"01-701-1023","DOMAIN":"ADVS","PARAMCD":"SYSBP","PARAM":"Systolic Blood Pressure (Supine) (mmHg)","PARAMN":1,"ADT":"2012-08-05","ADY":1,"AVISIT":"Baseline","AVISITN":0,"AVAL":130,"AVALU":"mmHg","BASE":130,"CHG":null,"PCHG":null,"ABLFL":"Y","TRT01A":"Placebo","TRT01AN":1,"SAFFL":"Y","ITTFL":"Y","SITEID":"701","AGE":64,"SEX":"M","RACE":"WHITE","ARMCD":"Pbo","TRTSDT":"2012-08-05","TRTEDT":"2012-09-01"},{"STUDYID":"CDISCPILOT01","USUBJID":"01-701-1023","DOMAIN":"ADVS","PARAMCD":"SYSBP","PARAM":"Systolic Blood Pressure (Supine) (mmHg)","PARAMN":1,"ADT":"2012-08-27","ADY":23,"AVISIT":"Week 2","AVISITN":2,"AVAL":122,"AVALU":"mmHg","BASE":130,"CHG":-8,"PCHG":-6.1538,"ABLFL":"Y","TRT01A":"Placebo","TRT01AN":1,"SAFFL":"Y","ITTFL":"Y","SITEID":"701","AGE":64,"SEX":"M","RACE":"WHITE","ARMCD":"Pbo","TRTSDT":"2012-08-05","TRTEDT":"2012-09-01"},{"STUDYID":"CDISCPILOT01","USUBJID":"01-701-1023","DOMAIN":"ADVS","PARAMCD":"SYSBP","PARAM":"Systolic Blood Pressure (Supine) (mmHg)","PARAMN":1,"ADT":"2012-09-02","ADY":29,"AVISIT":"Week 4","AVISITN":4,"AVAL":130,"AVALU":"mmHg","BASE":130,"CHG":0,"PCHG":0,"ABLFL":"Y","TRT01A":"Placebo","TRT01AN":1,"SAFFL":"Y","ITTFL":"Y","SITEID":"701","AGE":64,"SEX":"M","RACE":"WHITE","ARMCD":"Pbo","TRTSDT":"2012-08-05","TRTEDT":"2012-09-01"},{"STUDYID":"CDISCPILOT01","USUBJID":"01-701-1023","DOMAIN":"ADVS","PARAMCD":"SYSBP","PARAM":"Systolic Blood Pressure (Supine) (mmHg)","PARAMN":1,"ADT":"2013-02-18","ADY":198,"AVISIT":"Week 24","AVISITN":24,"AVAL":125,"AVALU":"mmHg","BASE":130,"CHG":-5,"PCHG":-3.8462,"ABLFL":"Y","TRT01A":"Placebo","TRT01AN":1,"SAFFL":"Y","ITTFL":"Y","SITEID":"701","AGE":64,"SEX":"M","RACE":"WHITE","ARMCD":"Pbo","TRTSDT":"2012-08-05","TRTEDT":"2012-09-01"},{"STUDYID":"CDISCPILOT01","USUBJID":"01-701-1023","DOMAIN":"ADVS","PARAMCD":"VSSBPST","PARAM":"Systolic Blood Pressure (Standing) (mmHg)","PARAMN":2,"ADT":"2012-07-22","ADY":-14,"AVISIT":"Screening","AVISITN":-2,"AVAL":132,"AVALU":"mmHg","BASE":132,"CHG":null,"PCHG":null,"ABLFL":"Y","TRT01A":"Placebo","TRT01AN":1,"SAFFL":"Y","ITTFL":"Y","SITEID":"701","AGE":64,"SEX":"M","RACE":"WHITE","ARMCD":"Pbo","TRTSDT":"2012-08-05","TRTEDT":"2012-09-01"},{"STUDYID":"CDISCPILOT01","USUBJID":"01-701-1023","DOMAIN":"ADVS","PARAMCD":"VSSBPST","PARAM":"Systolic Blood Pressure (Standing) (mmHg)","PARAMN":2,"ADT":"2012-08-05","ADY":1,"AVISIT":"Baseline","AVISITN":0,"AVAL":132,"AVALU":"mmHg","BASE":132,"CHG":null,"PCHG":null,"ABLFL":"Y","TRT01A":"Placebo","TRT01AN":1,"SAFFL":"Y","ITTFL":"Y","SITEID":"701","AGE":64,"SEX":"M","RACE":"WHITE","ARMCD":"Pbo","TRTSDT":"2012-08-05","TRTEDT":"2012-09-01"},{"STUDYID":"CDISCPILOT01","USUBJID":"01-701-1023","DOMAIN":"ADVS","PARAMCD":"VSSBPST","PARAM":"Systolic Blood Pressure (Standing) (mmHg)","PARAMN":2,"ADT":"2012-08-27","ADY":23,"AVISIT":"Week 2","AVISITN":2,"AVAL":130,"AVALU":"mmHg","BASE":132,"CHG":-2,"PCHG":-1.5152,"ABLFL":"Y","TRT01A":"Placebo","TRT01AN":1,"SAFFL":"Y","ITTFL":"Y","SITEID":"701","AGE":64,"SEX":"M","RACE":"WHITE","ARMCD":"Pbo","TRTSDT":"2012-08-05","TRTEDT":"2012-09-01"},{"STUDYID":"CDISCPILOT01","USUBJID":"01-701-1023","DOMAIN":"ADVS","PARAMCD":"VSSBPST","PARAM":"Systolic Blood Pressure (Standing) (mmHg)","PARAMN":2,"ADT":"2012-09-02","ADY":29,"AVISIT":"Week 4","AVISITN":4,"AVAL":134,"AVALU":"mmHg","BASE":132,"CHG":2,"PCHG":1.5152,"ABLFL":"Y","TRT01A":"Placebo","TRT01AN":1,"SAFFL":"Y","ITTFL":"Y","SITEID":"701","AGE":64,"SEX":"M","RACE":"WHITE","ARMCD":"Pbo","TRTSDT":"2012-08-05","TRTEDT":"2012-09-01"},{"STUDYID":"CDISCPILOT01","USUBJID":"01-701-1023","DOMAIN":"ADVS","PARAMCD":"VSSBPST","PARAM":"Systolic Blood Pressure (Standing) (mmHg)","PARAMN":2,"ADT":"2013-02-18","ADY":198,"AVISIT":"Week 24","AVISITN":24,"AVAL":110,"AVALU":"mmHg","BASE":132,"CHG":-22,"PCHG":-16.6667,"ABLFL":"Y","TRT01A":"Placebo","TRT01AN":1,"SAFFL":"Y","ITTFL":"Y","SITEID":"701","AGE":64,"SEX":"M","RACE":"WHITE","ARMCD":"Pbo","TRTSDT":"2012-08-05","TRTEDT":"2012-09-01"},{"STUDYID":"CDISCPILOT01","USUBJID":"01-701-1023","DOMAIN":"ADVS","PARAMCD":"DIABP","PARAM":"Diastolic Blood Pressure (Supine) (mmHg)","PARAMN":3,"ADT":"2012-07-22","ADY":-14,"AVISIT":"Screening","AVISITN":-2,"AVAL":86,"AVALU":"mmHg","BASE":84,"CHG":null,"PCHG":null,"ABLFL":"Y","TRT01A":"Placebo","TRT01AN":1,"SAFFL":"Y","ITTFL":"Y","SITEID":"701","AGE":64,"SEX":"M","RACE":"WHITE","ARMCD":"Pbo","TRTSDT":"2012-08-05","TRTEDT":"2012-09-01"},{"STUDYID":"CDISCPILOT01","USUBJID":"01-701-1023","DOMAIN":"ADVS","PARAMCD":"DIABP","PARAM":"Diastolic Blood Pressure (Supine) (mmHg)","PARAMN":3,"ADT":"2012-08-05","ADY":1,"AVISIT":"Baseline","AVISITN":0,"AVAL":84,"AVALU":"mmHg","BASE":84,"CHG":null,"PCHG":null,"ABLFL":"Y","TRT01A":"Placebo","TRT01AN":1,"SAFFL":"Y","ITTFL":"Y","SITEID":"701","AGE":64,"SEX":"M","RACE":"WHITE","ARMCD":"Pbo","TRTSDT":"2012-08-05","TRTEDT":"2012-09-01"},{"STUDYID":"CDISCPILOT01","USUBJID":"01-701-1023","DOMAIN":"ADVS","PARAMCD":"DIABP","PARAM":"Diastolic Blood Pressure (Supine) (mmHg)","PARAMN":3,"ADT":"2012-08-27","ADY":23,"AVISIT":"Week 2","AVISITN":2,"AVAL":88,"AVALU":"mmHg","BASE":84,"CHG":4,"PCHG":4.7619,"ABLFL":"Y","TRT01A":"Placebo","TRT01AN":1,"SAFFL":"Y","ITTFL":"Y","SITEID":"701","AGE":64,"SEX":"M","RACE":"WHITE","ARMCD":"Pbo","TRTSDT":"2012-08-05","TRTEDT":"2012-09-01"},{"STUDYID":"CDISCPILOT01","USUBJID":"01-701-1023","DOMAIN":"ADVS","PARAMCD":"DIABP","PARAM":"Diastolic Blood Pressure (Supine) (mmHg)","PARAMN":3,"ADT":"2012-09-02","ADY":29,"AVISIT":"Week 4","AVISITN":4,"AVAL":86,"AVALU":"mmHg","BASE":84,"CHG":2,"PCHG":2.381,"ABLFL":"Y","TRT01A":"Placebo","TRT01AN":1,"SAFFL":"Y","ITTFL":"Y","SITEID":"701","AGE":64,"SEX":"M","RACE":"WHITE","ARMCD":"Pbo","TRTSDT":"2012-08-05","TRTEDT":"2012-09-01"},{"STUDYID":"CDISCPILOT01","USUBJID":"01-701-1023","DOMAIN":"ADVS","PARAMCD":"DIABP","PARAM":"Diastolic Blood Pressure (Supine) (mmHg)","PARAMN":3,"ADT":"2013-02-18","ADY":198,"AVISIT":"Week 24","AVISITN":24,"AVAL":89,"AVALU":"mmHg","BASE":84,"CHG":5,"PCHG":5.9524,"ABLFL":"Y","TRT01A":"Placebo","TRT01AN":1,"SAFFL":"Y","ITTFL":"Y","SITEID":"701","AGE":64,"SEX":"M","RACE":"WHITE","ARMCD":"Pbo","TRTSDT":"2012-08-05","TRTEDT":"2012-09-01"},{"STUDYID":"CDISCPILOT01","USUBJID":"01-701-1023","DOMAIN":"ADVS","PARAMCD":"VSDBPST","PARAM":"Diastolic Blood Pressure (Standing) (mmHg)","PARAMN":4,"ADT":"2012-07-22","ADY":-14,"AVISIT":"Screening","AVISITN":-2,"AVAL":89,"AVALU":"mmHg","BASE":86,"CHG":null,"PCHG":null,"ABLFL":"Y","TRT01A":"Placebo","TRT01AN":1,"SAFFL":"Y","ITTFL":"Y","SITEID":"701","AGE":64,"SEX":"M","RACE":"WHITE","ARMCD":"Pbo","TRTSDT":"2012-08-05","TRTEDT":"2012-09-01"},{"STUDYID":"CDISCPILOT01","USUBJID":"01-701-1023","DOMAIN":"ADVS","PARAMCD":"VSDBPST","PARAM":"Diastolic Blood Pressure (Standing) (mmHg)","PARAMN":4,"ADT":"2012-08-05","ADY":1,"AVISIT":"Baseline","AVISITN":0,"AVAL":86,"AVALU":"mmHg","BASE":86,"CHG":null,"PCHG":null,"ABLFL":"Y","TRT01A":"Placebo","TRT01AN":1,"SAFFL":"Y","ITTFL":"Y","SITEID":"701","AGE":64,"SEX":"M","RACE":"WHITE","ARMCD":"Pbo","TRTSDT":"2012-08-05","TRTEDT":"2012-09-01"},{"STUDYID":"CDISCPILOT01","USUBJID":"01-701-1023","DOMAIN":"ADVS","PARAMCD":"VSDBPST","PARAM":"Diastolic Blood Pressure (Standing) (mmHg)","PARAMN":4,"ADT":"2012-08-27","ADY":23,"AVISIT":"Week 2","AVISITN":2,"AVAL":86,"AVALU":"mmHg","BASE":86,"CHG":0,"PCHG":0,"ABLFL":"Y","TRT01A":"Placebo","TRT01AN":1,"SAFFL":"Y","ITTFL":"Y","SITEID":"701","AGE":64,"SEX":"M","RACE":"WHITE","ARMCD":"Pbo","TRTSDT":"2012-08-05","TRTEDT":"2012-09-01"},{"STUDYID":"CDISCPILOT01","USUBJID":"01-701-1023","DOMAIN":"ADVS","PARAMCD":"VSDBPST","PARAM":"Diastolic Blood Pressure (Standing) (mmHg)","PARAMN":4,"ADT":"2012-09-02","ADY":29,"AVISIT":"Week 4","AVISITN":4,"AVAL":88,"AVALU":"mmHg","BASE":86,"CHG":2,"PCHG":2.3256,"ABLFL":"Y","TRT01A":"Placebo","TRT01AN":1,"SAFFL":"Y","ITTFL":"Y","SITEID":"701","AGE":64,"SEX":"M","RACE":"WHITE","ARMCD":"Pbo","TRTSDT":"2012-08-05","TRTEDT":"2012-09-01"},{"STUDYID":"CDISCPILOT01","USUBJID":"01-701-1023","DOMAIN":"ADVS","PARAMCD":"VSDBPST","PARAM":"Diastolic Blood Pressure (Standing) (mmHg)","PARAMN":4,"ADT":"2013-02-18","ADY":198,"AVISIT":"Week 24","AVISITN":24,"AVAL":86,"AVALU":"mmHg","BASE":86,"CHG":0,"PCHG":0,"ABLFL":"Y","TRT01A":"Placebo","TRT01AN":1,"SAFFL":"Y","ITTFL":"Y","SITEID":"701","AGE":64,"SEX":"M","RACE":"WHITE","ARMCD":"Pbo","TRTSDT":"2012-08-05","TRTEDT":"2012-09-01"},{"STUDYID":"CDISCPILOT01","USUBJID":"01-701-1023","DOMAIN":"ADVS","PARAMCD":"PULSE","PARAM":"Pulse Rate (Supine) (beats/min)","PARAMN":5,"ADT":"2012-07-22","ADY":-14,"AVISIT":"Screening","AVISITN":-2,"AVAL":65,"AVALU":"BEATS/MIN","BASE":68,"CHG":null,"PCHG":null,"ABLFL":"Y","TRT01A":"Placebo","TRT01AN":1,"SAFFL":"Y","ITTFL":"Y","SITEID":"701","AGE":64,"SEX":"M","RACE":"WHITE","ARMCD":"Pbo","TRTSDT":"2012-08-05","TRTEDT":"2012-09-01"},{"STUDYID":"CDISCPILOT01","USUBJID":"01-701-1023","DOMAIN":"ADVS","PARAMCD":"PULSE","PARAM":"Pulse Rate (Supine) (beats/min)","PARAMN":5,"ADT":"2012-08-05","ADY":1,"AVISIT":"Baseline","AVISITN":0,"AVAL":68,"AVALU":"BEATS/MIN","BASE":68,"CHG":null,"PCHG":null,"ABLFL":"Y","TRT01A":"Placebo","TRT01AN":1,"SAFFL":"Y","ITTFL":"Y","SITEID":"701","AGE":64,"SEX":"M","RACE":"WHITE","ARMCD":"Pbo","TRTSDT":"2012-08-05","TRTEDT":"2012-09-01"},{"STUDYID":"CDISCPILOT01","USUBJID":"01-701-1023","DOMAIN":"ADVS","PARAMCD":"PULSE","PARAM":"Pulse Rate (Supine) (beats/min)","PARAMN":5,"ADT":"2012-08-27","ADY":23,"AVISIT":"Week 2","AVISITN":2,"AVAL":84,"AVALU":"BEATS/MIN","BASE":68,"CHG":16,"PCHG":23.5294,"ABLFL":"Y","TRT01A":"Placebo","TRT01AN":1,"SAFFL":"Y","ITTFL":"Y","SITEID":"701","AGE":64,"SEX":"M","RACE":"WHITE","ARMCD":"Pbo","TRTSDT":"2012-08-05","TRTEDT":"2012-09-01"},{"STUDYID":"CDISCPILOT01","USUBJID":"01-701-1023","DOMAIN":"ADVS","PARAMCD":"PULSE","PARAM":"Pulse Rate (Supine) (beats/min)","PARAMN":5,"ADT":"2012-09-02","ADY":29,"AVISIT":"Week 4","AVISITN":4,"AVAL":64,"AVALU":"BEATS/MIN","BASE":68,"CHG":-4,"PCHG":-5.8824,"ABLFL":"Y","TRT01A":"Placebo","TRT01AN":1,"SAFFL":"Y","ITTFL":"Y","SITEID":"701","AGE":64,"SEX":"M","RACE":"WHITE","ARMCD":"Pbo","TRTSDT":"2012-08-05","TRTEDT":"2012-09-01"},{"STUDYID":"CDISCPILOT01","USUBJID":"01-701-1023","DOMAIN":"ADVS","PARAMCD":"PULSE","PARAM":"Pulse Rate (Supine) (beats/min)","PARAMN":5,"ADT":"2013-02-18","ADY":198,"AVISIT":"Week 24","AVISITN":24,"AVAL":72,"AVALU":"BEATS/MIN","BASE":68,"CHG":4,"PCHG":5.8824,"ABLFL":"Y","TRT01A":"Placebo","TRT01AN":1,"SAFFL":"Y","ITTFL":"Y","SITEID":"701","AGE":64,"SEX":"M","RACE":"WHITE","ARMCD":"Pbo","TRTSDT":"2012-08-05","TRTEDT":"2012-09-01"},{"STUDYID":"CDISCPILOT01","USUBJID":"01-701-1023","DOMAIN":"ADVS","PARAMCD":"VSPULST","PARAM":"Pulse Rate (Standing) (beats/min)","PARAMN":6,"ADT":"2012-07-22","ADY":-14,"AVISIT":"Screening","AVISITN":-2,"AVAL":78,"AVALU":"BEATS/MIN","BASE":80,"CHG":null,"PCHG":null,"ABLFL":"Y","TRT01A":"Placebo","TRT01AN":1,"SAFFL":"Y","ITTFL":"Y","SITEID":"701","AGE":64,"SEX":"M","RACE":"WHITE","ARMCD":"Pbo","TRTSDT":"2012-08-05","TRTEDT":"2012-09-01"},{"STUDYID":"CDISCPILOT01","USUBJID":"01-701-1023","DOMAIN":"ADVS","PARAMCD":"VSPULST","PARAM":"Pulse Rate (Standing) (beats/min)","PARAMN":6,"ADT":"2012-08-05","ADY":1,"AVISIT":"Baseline","AVISITN":0,"AVAL":80,"AVALU":"BEATS/MIN","BASE":80,"CHG":null,"PCHG":null,"ABLFL":"Y","TRT01A":"Placebo","TRT01AN":1,"SAFFL":"Y","ITTFL":"Y","SITEID":"701","AGE":64,"SEX":"M","RACE":"WHITE","ARMCD":"Pbo","TRTSDT":"2012-08-05","TRTEDT":"2012-09-01"},{"STUDYID":"CDISCPILOT01","USUBJID":"01-701-1023","DOMAIN":"ADVS","PARAMCD":"VSPULST","PARAM":"Pulse Rate (Standing) (beats/min)","PARAMN":6,"ADT":"2012-08-27","ADY":23,"AVISIT":"Week 2","AVISITN":2,"AVAL":92,"AVALU":"BEATS/MIN","BASE":80,"CHG":12,"PCHG":15,"ABLFL":"Y","TRT01A":"Placebo","TRT01AN":1,"SAFFL":"Y","ITTFL":"Y","SITEID":"701","AGE":64,"SEX":"M","RACE":"WHITE","ARMCD":"Pbo","TRTSDT":"2012-08-05","TRTEDT":"2012-09-01"},{"STUDYID":"CDISCPILOT01","USUBJID":"01-701-1023","DOMAIN":"ADVS","PARAMCD":"VSPULST","PARAM":"Pulse Rate (Standing) (beats/min)","PARAMN":6,"ADT":"2012-09-02","ADY":29,"AVISIT":"Week 4","AVISITN":4,"AVAL":76,"AVALU":"BEATS/MIN","BASE":80,"CHG":-4,"PCHG":-5,"ABLFL":"Y","TRT01A":"Placebo","TRT01AN":1,"SAFFL":"Y","ITTFL":"Y","SITEID":"701","AGE":64,"SEX":"M","RACE":"WHITE","ARMCD":"Pbo","TRTSDT":"2012-08-05","TRTEDT":"2012-09-01"},{"STUDYID":"CDISCPILOT01","USUBJID":"01-701-1023","DOMAIN":"ADVS","PARAMCD":"VSPULST","PARAM":"Pulse Rate (Standing) (beats/min)","PARAMN":6,"ADT":"2013-02-18","ADY":198,"AVISIT":"Week 24","AVISITN":24,"AVAL":84,"AVALU":"BEATS/MIN","BASE":80,"CHG":4,"PCHG":5,"ABLFL":"Y","TRT01A":"Placebo","TRT01AN":1,"SAFFL":"Y","ITTFL":"Y","SITEID":"701","AGE":64,"SEX":"M","RACE":"WHITE","ARMCD":"Pbo","TRTSDT":"2012-08-05","TRTEDT":"2012-09-01"},{"STUDYID":"CDISCPILOT01","USUBJID":"01-701-1023","DOMAIN":"ADVS","PARAMCD":"WEIGHT","PARAM":"Weight (kg)","PARAMN":7,"ADT":"2012-07-22","ADY":-14,"AVISIT":"Screening","AVISITN":-2,"AVAL":78.47,"AVALU":"kg","BASE":80.29,"CHG":null,"PCHG":null,"ABLFL":"Y","TRT01A":"Placebo","TRT01AN":1,"SAFFL":"Y","ITTFL":"Y","SITEID":"701","AGE":64,"SEX":"M","RACE":"WHITE","ARMCD":"Pbo","TRTSDT":"2012-08-05","TRTEDT":"2012-09-01"},{"STUDYID":"CDISCPILOT01","USUBJID":"01-701-1023","DOMAIN":"ADVS","PARAMCD":"WEIGHT","PARAM":"Weight (kg)","PARAMN":7,"ADT":"2012-08-05","ADY":1,"AVISIT":"Baseline","AVISITN":0,"AVAL":80.29,"AVALU":"kg","BASE":80.29,"CHG":null,"PCHG":null,"ABLFL":"Y","TRT01A":"Placebo","TRT01AN":1,"SAFFL":"Y","ITTFL":"Y","SITEID":"701","AGE":64,"SEX":"M","RACE":"WHITE","ARMCD":"Pbo","TRTSDT":"2012-08-05","TRTEDT":"2012-09-01"},{"STUDYID":"CDISCPILOT01","USUBJID":"01-701-1023","DOMAIN":"ADVS","PARAMCD":"WEIGHT","PARAM":"Weight (kg)","PARAMN":7,"ADT":"2012-08-27","ADY":23,"AVISIT":"Week 2","AVISITN":2,"AVAL":80.74,"AVALU":"kg","BASE":80.29,"CHG":0.45,"PCHG":0.5605,"ABLFL":"Y","TRT01A":"Placebo","TRT01AN":1,"SAFFL":"Y","ITTFL":"Y","SITEID":"701","AGE":64,"SEX":"M","RACE":"WHITE","ARMCD":"Pbo","TRTSDT":"2012-08-05","TRTEDT":"2012-09-01"},{"STUDYID":"CDISCPILOT01","USUBJID":"01-701-1023","DOMAIN":"ADVS","PARAMCD":"WEIGHT","PARAM":"Weight (kg)","PARAMN":7,"ADT":"2012-09-02","ADY":29,"AVISIT":"Week 4","AVISITN":4,"AVAL":80.29,"AVALU":"kg","BASE":80.29,"CHG":0,"PCHG":0,"ABLFL":"Y","TRT01A":"Placebo","TRT01AN":1,"SAFFL":"Y","ITTFL":"Y","SITEID":"701","AGE":64,"SEX":"M","RACE":"WHITE","ARMCD":"Pbo","TRTSDT":"2012-08-05","TRTEDT":"2012-09-01"},{"STUDYID":"CDISCPILOT01","USUBJID":"01-701-1023","DOMAIN":"ADVS","PARAMCD":"HEIGHT","PARAM":"Height (cm)","PARAMN":8,"ADT":"2012-07-22","ADY":-14,"AVISIT":"Screening","AVISITN":-2,"AVAL":162.56,"AVALU":"cm","BASE":162.56,"CHG":null,"PCHG":null,"ABLFL":"Y","TRT01A":"Placebo","TRT01AN":1,"SAFFL":"Y","ITTFL":"Y","SITEID":"701","AGE":64,"SEX":"M","RACE":"WHITE","ARMCD":"Pbo","TRTSDT":"2012-08-05","TRTEDT":"2012-09-01"},{"STUDYID":"CDISCPILOT01","USUBJID":"01-701-1023","DOMAIN":"ADVS","PARAMCD":"TEMP","PARAM":"Temperature (C)","PARAMN":9,"ADT":"2012-07-22","ADY":-14,"AVISIT":"Screening","AVISITN":-2,"AVAL":36.56,"AVALU":"C","BASE":36.28,"CHG":null,"PCHG":null,"ABLFL":"Y","TRT01A":"Placebo","TRT01AN":1,"SAFFL":"Y","ITTFL":"Y","SITEID":"701","AGE":64,"SEX":"M","RACE":"WHITE","ARMCD":"Pbo","TRTSDT":"2012-08-05","TRTEDT":"2012-09-01"},{"STUDYID":"CDISCPILOT01","USUBJID":"01-701-1023","DOMAIN":"ADVS","PARAMCD":"TEMP","PARAM":"Temperature (C)","PARAMN":9,"ADT":"2012-08-05","ADY":1,"AVISIT":"Baseline","AVISITN":0,"AVAL":36.28,"AVALU":"C","BASE":36.28,"CHG":null,"PCHG":null,"ABLFL":"Y","TRT01A":"Placebo","TRT01AN":1,"SAFFL":"Y","ITTFL":"Y","SITEID":"701","AGE":64,"SEX":"M","RACE":"WHITE","ARMCD":"Pbo","TRTSDT":"2012-08-05","TRTEDT":"2012-09-01"},{"STUDYID":"CDISCPILOT01","USUBJID":"01-701-1023","DOMAIN":"ADVS","PARAMCD":"TEMP","PARAM":"Temperature (C)","PARAMN":9,"ADT":"2012-08-27","ADY":23,"AVISIT":"Week 2","AVISITN":2,"AVAL":36.94,"AVALU":"C","BASE":36.28,"CHG":0.66,"PCHG":1.8192,"ABLFL":"Y","TRT01A":"Placebo","TRT01AN":1,"SAFFL":"Y","ITTFL":"Y","SITEID":"701","AGE":64,"SEX":"M","RACE":"WHITE","ARMCD":"Pbo","TRTSDT":"2012-08-05","TRTEDT":"2012-09-01"},{"STUDYID":"CDISCPILOT01","USUBJID":"01-701-1023","DOMAIN":"ADVS","PARAMCD":"TEMP","PARAM":"Temperature (C)","PARAMN":9,"ADT":"2012-09-02","ADY":29,"AVISIT":"Week 4","AVISITN":4,"AVAL":36.22,"AVALU":"C","BASE":36.28,"CHG":-0.06,"PCHG":-0.1654,"ABLFL":"Y","TRT01A":"Placebo","TRT01AN":1,"SAFFL":"Y","ITTFL":"Y","SITEID":"701","AGE":64,"SEX":"M","RACE":"WHITE","ARMCD":"Pbo","TRTSDT":"2012-08-05","TRTEDT":"2012-09-01"},{"STUDYID":"CDISCPILOT01","USUBJID":"01-701-1023","DOMAIN":"ADVS","PARAMCD":"TEMP","PARAM":"Temperature (C)","PARAMN":9,"ADT":"2013-02-18","ADY":198,"AVISIT":"Week 24","AVISITN":24,"AVAL":36.56,"AVALU":"C","BASE":36.28,"CHG":0.28,"PCHG":0.7718,"ABLFL":"Y","TRT01A":"Placebo","TRT01AN":1,"SAFFL":"Y","ITTFL":"Y","SITEID":"701","AGE":64,"SEX":"M","RACE":"WHITE","ARMCD":"Pbo","TRTSDT":"2012-08-05","TRTEDT":"2012-09-01"},{"STUDYID":"CDISCPILOT01","USUBJID":"01-701-1028","DOMAIN":"ADVS","PARAMCD":"SYSBP","PARAM":"Systolic Blood Pressure (Supine) (mmHg)","PARAMN":1,"ADT":"2013-07-11","ADY":-8,"AVISIT":"Screening","AVISITN":-2,"AVAL":143,"AVALU":"mmHg","BASE":138,"CHG":null,"PCHG":null,"ABLFL":"Y","TRT01A":"Xanomeline High Dose","TRT01AN":3,"SAFFL":"Y","ITTFL":"Y","SITEID":"701","AGE":71,"SEX":"M","RACE":"WHITE","ARMCD":"Xan_Hi","TRTSDT":"2013-07-19","TRTEDT":"2014-01-14"},{"STUDYID":"CDISCPILOT01","USUBJID":"01-701-1028","DOMAIN":"ADVS","PARAMCD":"SYSBP","PARAM":"Systolic Blood Pressure (Supine) (mmHg)","PARAMN":1,"ADT":"2013-07-19","ADY":1,"AVISIT":"Baseline","AVISITN":0,"AVAL":138,"AVALU":"mmHg","BASE":138,"CHG":null,"PCHG":null,"ABLFL":"Y","TRT01A":"Xanomeline High Dose","TRT01AN":3,"SAFFL":"Y","ITTFL":"Y","SITEID":"701","AGE":71,"SEX":"M","RACE":"WHITE","ARMCD":"Xan_Hi","TRTSDT":"2013-07-19","TRTEDT":"2014-01-14"},{"STUDYID":"CDISCPILOT01","USUBJID":"01-701-1028","DOMAIN":"ADVS","PARAMCD":"SYSBP","PARAM":"Systolic Blood Pressure (Supine) (mmHg)","PARAMN":1,"ADT":"2013-08-01","ADY":14,"AVISIT":"Week 2","AVISITN":2,"AVAL":134,"AVALU":"mmHg","BASE":138,"CHG":-4,"PCHG":-2.8986,"ABLFL":"Y","TRT01A":"Xanomeline High Dose","TRT01AN":3,"SAFFL":"Y","ITTFL":"Y","SITEID":"701","AGE":71,"SEX":"M","RACE":"WHITE","ARMCD":"Xan_Hi","TRTSDT":"2013-07-19","TRTEDT":"2014-01-14"},{"STUDYID":"CDISCPILOT01","USUBJID":"01-701-1028","DOMAIN":"ADVS","PARAMCD":"SYSBP","PARAM":"Systolic Blood Pressure (Supine) (mmHg)","PARAMN":1,"ADT":"2013-08-14","ADY":27,"AVISIT":"Week 4","AVISITN":4,"AVAL":130,"AVALU":"mmHg","BASE":138,"CHG":-8,"PCHG":-5.7971,"ABLFL":"Y","TRT01A":"Xanomeline High Dose","TRT01AN":3,"SAFFL":"Y","ITTFL":"Y","SITEID":"701","AGE":71,"SEX":"M","RACE":"WHITE","ARMCD":"Xan_Hi","TRTSDT":"2013-07-19","TRTEDT":"2014-01-14"},{"STUDYID":"CDISCPILOT01","USUBJID":"01-701-1028","DOMAIN":"ADVS","PARAMCD":"SYSBP","PARAM":"Systolic Blood Pressure (Supine) (mmHg)","PARAMN":1,"ADT":"2013-08-29","ADY":42,"AVISIT":"Week 6","AVISITN":6,"AVAL":131,"AVALU":"mmHg","BASE":138,"CHG":-7,"PCHG":-5.0725,"ABLFL":"Y","TRT01A":"Xanomeline High Dose","TRT01AN":3,"SAFFL":"Y","ITTFL":"Y","SITEID":"701","AGE":71,"SEX":"M","RACE":"WHITE","ARMCD":"Xan_Hi","TRTSDT":"2013-07-19","TRTEDT":"2014-01-14"},{"STUDYID":"CDISCPILOT01","USUBJID":"01-701-1028","DOMAIN":"ADVS","PARAMCD":"SYSBP","PARAM":"Systolic Blood Pressure (Supine) (mmHg)","PARAMN":1,"ADT":"2013-09-10","ADY":54,"AVISIT":"Week 8","AVISITN":8,"AVAL":137,"AVALU":"mmHg","BASE":138,"CHG":-1,"PCHG":-0.7246,"ABLFL":"Y","TRT01A":"Xanomeline High Dose","TRT01AN":3,"SAFFL":"Y","ITTFL":"Y","SITEID":"701","AGE":71,"SEX":"M","RACE":"WHITE","ARMCD":"Xan_Hi","TRTSDT":"2013-07-19","TRTEDT":"2014-01-14"},{"STUDYID":"CDISCPILOT01","USUBJID":"01-701-1028","DOMAIN":"ADVS","PARAMCD":"SYSBP","PARAM":"Systolic Blood Pressure (Supine) (mmHg)","PARAMN":1,"ADT":"2013-10-09","ADY":83,"AVISIT":"Week 12","AVISITN":12,"AVAL":128,"AVALU":"mmHg","BASE":138,"CHG":-10,"PCHG":-7.2464,"ABLFL":"Y","TRT01A":"Xanomeline High Dose","TRT01AN":3,"SAFFL":"Y","ITTFL":"Y","SITEID":"701","AGE":71,"SEX":"M","RACE":"WHITE","ARMCD":"Xan_Hi","TRTSDT":"2013-07-19","TRTEDT":"2014-01-14"},{"STUDYID":"CDISCPILOT01","USUBJID":"01-701-1028","DOMAIN":"ADVS","PARAMCD":"SYSBP","PARAM":"Systolic Blood Pressure (Supine) (mmHg)","PARAMN":1,"ADT":"2013-11-06","ADY":111,"AVISIT":"Week 16","AVISITN":16,"AVAL":122,"AVALU":"mmHg","BASE":138,"CHG":-16,"PCHG":-11.5942,"ABLFL":"Y","TRT01A":"Xanomeline High Dose","TRT01AN":3,"SAFFL":"Y","ITTFL":"Y","SITEID":"701","AGE":71,"SEX":"M","RACE":"WHITE","ARMCD":"Xan_Hi","TRTSDT":"2013-07-19","TRTEDT":"2014-01-14"},{"STUDYID":"CDISCPILOT01","USUBJID":"01-701-1028","DOMAIN":"ADVS","PARAMCD":"SYSBP","PARAM":"Systolic Blood Pressure (Supine) (mmHg)","PARAMN":1,"ADT":"2013-12-04","ADY":139,"AVISIT":"Week 20","AVISITN":20,"AVAL":129,"AVALU":"mmHg","BASE":138,"CHG":-9,"PCHG":-6.5217,"ABLFL":"Y","TRT01A":"Xanomeline High Dose","TRT01AN":3,"SAFFL":"Y","ITTFL":"Y","SITEID":"701","AGE":71,"SEX":"M","RACE":"WHITE","ARMCD":"Xan_Hi","TRTSDT":"2013-07-19","TRTEDT":"2014-01-14"},{"STUDYID":"CDISCPILOT01","USUBJID":"01-701-1028","DOMAIN":"ADVS","PARAMCD":"SYSBP","PARAM":"Systolic Blood Pressure (Supine) (mmHg)","PARAMN":1,"ADT":"2014-01-06","ADY":172,"AVISIT":"Week 24","AVISITN":24,"AVAL":130,"AVALU":"mmHg","BASE":138,"CHG":-8,"PCHG":-5.7971,"ABLFL":"Y","TRT01A":"Xanomeline High Dose","TRT01AN":3,"SAFFL":"Y","ITTFL":"Y","SITEID":"701","AGE":71,"SEX":"M","RACE":"WHITE","ARMCD":"Xan_Hi","TRTSDT":"2013-07-19","TRTEDT":"2014-01-14"},{"STUDYID":"CDISCPILOT01","USUBJID":"01-701-1028","DOMAIN":"ADVS","PARAMCD":"SYSBP","PARAM":"Systolic Blood Pressure (Supine) (mmHg)","PARAMN":1,"ADT":"2014-01-14","ADY":180,"AVISIT":"Week 26","AVISITN":26,"AVAL":131,"AVALU":"mmHg","BASE":138,"CHG":-7,"PCHG":-5.0725,"ABLFL":"Y","TRT01A":"Xanomeline High Dose","TRT01AN":3,"SAFFL":"Y","ITTFL":"Y","SITEID":"701","AGE":71,"SEX":"M","RACE":"WHITE","ARMCD":"Xan_Hi","TRTSDT":"2013-07-19","TRTEDT":"2014-01-14"},{"STUDYID":"CDISCPILOT01","USUBJID":"01-701-1028","DOMAIN":"ADVS","PARAMCD":"VSSBPST","PARAM":"Systolic Blood Pressure (Standing) (mmHg)","PARAMN":2,"ADT":"2013-07-11","ADY":-8,"AVISIT":"Screening","AVISITN":-2,"AVAL":140,"AVALU":"mmHg","BASE":145,"CHG":null,"PCHG":null,"ABLFL":"Y","TRT01A":"Xanomeline High Dose","TRT01AN":3,"SAFFL":"Y","ITTFL":"Y","SITEID":"701","AGE":71,"SEX":"M","RACE":"WHITE","ARMCD":"Xan_Hi","TRTSDT":"2013-07-19","TRTEDT":"2014-01-14"},{"STUDYID":"CDISCPILOT01","USUBJID":"01-701-1028","DOMAIN":"ADVS","PARAMCD":"VSSBPST","PARAM":"Systolic Blood Pressure (Standing) (mmHg)","PARAMN":2,"ADT":"2013-07-19","ADY":1,"AVISIT":"Baseline","AVISITN":0,"AVAL":145,"AVALU":"mmHg","BASE":145,"CHG":null,"PCHG":null,"ABLFL":"Y","TRT01A":"Xanomeline High Dose","TRT01AN":3,"SAFFL":"Y","ITTFL":"Y","SITEID":"701","AGE":71,"SEX":"M","RACE":"WHITE","ARMCD":"Xan_Hi","TRTSDT":"2013-07-19","TRTEDT":"2014-01-14"},{"STUDYID":"CDISCPILOT01","USUBJID":"01-701-1028","DOMAIN":"ADVS","PARAMCD":"VSSBPST","PARAM":"Systolic Blood Pressure (Standing) (mmHg)","PARAMN":2,"ADT":"2013-08-01","ADY":14,"AVISIT":"Week 2","AVISITN":2,"AVAL":138,"AVALU":"mmHg","BASE":145,"CHG":-7,"PCHG":-4.8276,"ABLFL":"Y","TRT01A":"Xanomeline High Dose","TRT01AN":3,"SAFFL":"Y","ITTFL":"Y","SITEID":"701","AGE":71,"SEX":"M","RACE":"WHITE","ARMCD":"Xan_Hi","TRTSDT":"2013-07-19","TRTEDT":"2014-01-14"},{"STUDYID":"CDISCPILOT01","USUBJID":"01-701-1028","DOMAIN":"ADVS","PARAMCD":"VSSBPST","PARAM":"Systolic Blood Pressure (Standing) (mmHg)","PARAMN":2,"ADT":"2013-08-14","ADY":27,"AVISIT":"Week 4","AVISITN":4,"AVAL":130,"AVALU":"mmHg","BASE":145,"CHG":-15,"PCHG":-10.3448,"ABLFL":"Y","TRT01A":"Xanomeline High Dose","TRT01AN":3,"SAFFL":"Y","ITTFL":"Y","SITEID":"701","AGE":71,"SEX":"M","RACE":"WHITE","ARMCD":"Xan_Hi","TRTSDT":"2013-07-19","TRTEDT":"2014-01-14"},{"STUDYID":"CDISCPILOT01","USUBJID":"01-701-1028","DOMAIN":"ADVS","PARAMCD":"VSSBPST","PARAM":"Systolic Blood Pressure (Standing) (mmHg)","PARAMN":2,"ADT":"2013-08-29","ADY":42,"AVISIT":"Week 6","AVISITN":6,"AVAL":131,"AVALU":"mmHg","BASE":145,"CHG":-14,"PCHG":-9.6552,"ABLFL":"Y","TRT01A":"Xanomeline High Dose","TRT01AN":3,"SAFFL":"Y","ITTFL":"Y","SITEID":"701","AGE":71,"SEX":"M","RACE":"WHITE","ARMCD":"Xan_Hi","TRTSDT":"2013-07-19","TRTEDT":"2014-01-14"},{"STUDYID":"CDISCPILOT01","USUBJID":"01-701-1028","DOMAIN":"ADVS","PARAMCD":"VSSBPST","PARAM":"Systolic Blood Pressure (Standing) (mmHg)","PARAMN":2,"ADT":"2013-09-10","ADY":54,"AVISIT":"Week 8","AVISITN":8,"AVAL":146,"AVALU":"mmHg","BASE":145,"CHG":1,"PCHG":0.6897,"ABLFL":"Y","TRT01A":"Xanomeline High Dose","TRT01AN":3,"SAFFL":"Y","ITTFL":"Y","SITEID":"701","AGE":71,"SEX":"M","RACE":"WHITE","ARMCD":"Xan_Hi","TRTSDT":"2013-07-19","TRTEDT":"2014-01-14"},{"STUDYID":"CDISCPILOT01","USUBJID":"01-701-1028","DOMAIN":"ADVS","PARAMCD":"VSSBPST","PARAM":"Systolic Blood Pressure (Standing) (mmHg)","PARAMN":2,"ADT":"2013-10-09","ADY":83,"AVISIT":"Week 12","AVISITN":12,"AVAL":137,"AVALU":"mmHg","BASE":145,"CHG":-8,"PCHG":-5.5172,"ABLFL":"Y","TRT01A":"Xanomeline High Dose","TRT01AN":3,"SAFFL":"Y","ITTFL":"Y","SITEID":"701","AGE":71,"SEX":"M","RACE":"WHITE","ARMCD":"Xan_Hi","TRTSDT":"2013-07-19","TRTEDT":"2014-01-14"},{"STUDYID":"CDISCPILOT01","USUBJID":"01-701-1028","DOMAIN":"ADVS","PARAMCD":"VSSBPST","PARAM":"Systolic Blood Pressure (Standing) (mmHg)","PARAMN":2,"ADT":"2013-11-06","ADY":111,"AVISIT":"Week 16","AVISITN":16,"AVAL":130,"AVALU":"mmHg","BASE":145,"CHG":-15,"PCHG":-10.3448,"ABLFL":"Y","TRT01A":"Xanomeline High Dose","TRT01AN":3,"SAFFL":"Y","ITTFL":"Y","SITEID":"701","AGE":71,"SEX":"M","RACE":"WHITE","ARMCD":"Xan_Hi","TRTSDT":"2013-07-19","TRTEDT":"2014-01-14"},{"STUDYID":"CDISCPILOT01","USUBJID":"01-701-1028","DOMAIN":"ADVS","PARAMCD":"VSSBPST","PARAM":"Systolic Blood Pressure (Standing) (mmHg)","PARAMN":2,"ADT":"2013-12-04","ADY":139,"AVISIT":"Week 20","AVISITN":20,"AVAL":123,"AVALU":"mmHg","BASE":145,"CHG":-22,"PCHG":-15.1724,"ABLFL":"Y","TRT01A":"Xanomeline High Dose","TRT01AN":3,"SAFFL":"Y","ITTFL":"Y","SITEID":"701","AGE":71,"SEX":"M","RACE":"WHITE","ARMCD":"Xan_Hi","TRTSDT":"2013-07-19","TRTEDT":"2014-01-14"},{"STUDYID":"CDISCPILOT01","USUBJID":"01-701-1028","DOMAIN":"ADVS","PARAMCD":"VSSBPST","PARAM":"Systolic Blood Pressure (Standing) (mmHg)","PARAMN":2,"ADT":"2014-01-06","ADY":172,"AVISIT":"Week 24","AVISITN":24,"AVAL":133,"AVALU":"mmHg","BASE":145,"CHG":-12,"PCHG":-8.2759,"ABLFL":"Y","TRT01A":"Xanomeline High Dose","TRT01AN":3,"SAFFL":"Y","ITTFL":"Y","SITEID":"701","AGE":71,"SEX":"M","RACE":"WHITE","ARMCD":"Xan_Hi","TRTSDT":"2013-07-19","TRTEDT":"2014-01-14"},{"STUDYID":"CDISCPILOT01","USUBJID":"01-701-1028","DOMAIN":"ADVS","PARAMCD":"VSSBPST","PARAM":"Systolic Blood Pressure (Standing) (mmHg)","PARAMN":2,"ADT":"2014-01-14","ADY":180,"AVISIT":"Week 26","AVISITN":26,"AVAL":118,"AVALU":"mmHg","BASE":145,"CHG":-27,"PCHG":-18.6207,"ABLFL":"Y","TRT01A":"Xanomeline High Dose","TRT01AN":3,"SAFFL":"Y","ITTFL":"Y","SITEID":"701","AGE":71,"SEX":"M","RACE":"WHITE","ARMCD":"Xan_Hi","TRTSDT":"2013-07-19","TRTEDT":"2014-01-14"},{"STUDYID":"CDISCPILOT01","USUBJID":"01-701-1028","DOMAIN":"ADVS","PARAMCD":"DIABP","PARAM":"Diastolic Blood Pressure (Supine) (mmHg)","PARAMN":3,"ADT":"2013-07-11","ADY":-8,"AVISIT":"Screening","AVISITN":-2,"AVAL":76,"AVALU":"mmHg","BASE":85,"CHG":null,"PCHG":null,"ABLFL":"Y","TRT01A":"Xanomeline High Dose","TRT01AN":3,"SAFFL":"Y","ITTFL":"Y","SITEID":"701","AGE":71,"SEX":"M","RACE":"WHITE","ARMCD":"Xan_Hi","TRTSDT":"2013-07-19","TRTEDT":"2014-01-14"},{"STUDYID":"CDISCPILOT01","USUBJID":"01-701-1028","DOMAIN":"ADVS","PARAMCD":"DIABP","PARAM":"Diastolic Blood Pressure (Supine) (mmHg)","PARAMN":3,"ADT":"2013-07-19","ADY":1,"AVISIT":"Baseline","AVISITN":0,"AVAL":85,"AVALU":"mmHg","BASE":85,"CHG":null,"PCHG":null,"ABLFL":"Y","TRT01A":"Xanomeline High Dose","TRT01AN":3,"SAFFL":"Y","ITTFL":"Y","SITEID":"701","AGE":71,"SEX":"M","RACE":"WHITE","ARMCD":"Xan_Hi","TRTSDT":"2013-07-19","TRTEDT":"2014-01-14"},{"STUDYID":"CDISCPILOT01","USUBJID":"01-701-1028","DOMAIN":"ADVS","PARAMCD":"DIABP","PARAM":"Diastolic Blood Pressure (Supine) (mmHg)","PARAMN":3,"ADT":"2013-08-01","ADY":14,"AVISIT":"Week 2","AVISITN":2,"AVAL":78,"AVALU":"mmHg","BASE":85,"CHG":-7,"PCHG":-8.2353,"ABLFL":"Y","TRT01A":"Xanomeline High Dose","TRT01AN":3,"SAFFL":"Y","ITTFL":"Y","SITEID":"701","AGE":71,"SEX":"M","RACE":"WHITE","ARMCD":"Xan_Hi","TRTSDT":"2013-07-19","TRTEDT":"2014-01-14"},{"STUDYID":"CDISCPILOT01","USUBJID":"01-701-1028","DOMAIN":"ADVS","PARAMCD":"DIABP","PARAM":"Diastolic Blood Pressure (Supine) (mmHg)","PARAMN":3,"ADT":"2013-08-14","ADY":27,"AVISIT":"Week 4","AVISITN":4,"AVAL":69,"AVALU":"mmHg","BASE":85,"CHG":-16,"PCHG":-18.8235,"ABLFL":"Y","TRT01A":"Xanomeline High Dose","TRT01AN":3,"SAFFL":"Y","ITTFL":"Y","SITEID":"701","AGE":71,"SEX":"M","RACE":"WHITE","ARMCD":"Xan_Hi","TRTSDT":"2013-07-19","TRTEDT":"2014-01-14"},{"STUDYID":"CDISCPILOT01","USUBJID":"01-701-1028","DOMAIN":"ADVS","PARAMCD":"DIABP","PARAM":"Diastolic Blood Pressure (Supine) (mmHg)","PARAMN":3,"ADT":"2013-08-29","ADY":42,"AVISIT":"Week 6","AVISITN":6,"AVAL":69,"AVALU":"mmHg","BASE":85,"CHG":-16,"PCHG":-18.8235,"ABLFL":"Y","TRT01A":"Xanomeline High Dose","TRT01AN":3,"SAFFL":"Y","ITTFL":"Y","SITEID":"701","AGE":71,"SEX":"M","RACE":"WHITE","ARMCD":"Xan_Hi","TRTSDT":"2013-07-19","TRTEDT":"2014-01-14"},{"STUDYID":"CDISCPILOT01","USUBJID":"01-701-1028","DOMAIN":"ADVS","PARAMCD":"DIABP","PARAM":"Diastolic Blood Pressure (Supine) (mmHg)","PARAMN":3,"ADT":"2013-09-10","ADY":54,"AVISIT":"Week 8","AVISITN":8,"AVAL":76,"AVALU":"mmHg","BASE":85,"CHG":-9,"PCHG":-10.5882,"ABLFL":"Y","TRT01A":"Xanomeline High Dose","TRT01AN":3,"SAFFL":"Y","ITTFL":"Y","SITEID":"701","AGE":71,"SEX":"M","RACE":"WHITE","ARMCD":"Xan_Hi","TRTSDT":"2013-07-19","TRTEDT":"2014-01-14"},{"STUDYID":"CDISCPILOT01","USUBJID":"01-701-1028","DOMAIN":"ADVS","PARAMCD":"DIABP","PARAM":"Diastolic Blood Pressure (Supine) (mmHg)","PARAMN":3,"ADT":"2013-10-09","ADY":83,"AVISIT":"Week 12","AVISITN":12,"AVAL":74,"AVALU":"mmHg","BASE":85,"CHG":-11,"PCHG":-12.9412,"ABLFL":"Y","TRT01A":"Xanomeline High Dose","TRT01AN":3,"SAFFL":"Y","ITTFL":"Y","SITEID":"701","AGE":71,"SEX":"M","RACE":"WHITE","ARMCD":"Xan_Hi","TRTSDT":"2013-07-19","TRTEDT":"2014-01-14"},{"STUDYID":"CDISCPILOT01","USUBJID":"01-701-1028","DOMAIN":"ADVS","PARAMCD":"DIABP","PARAM":"Diastolic Blood Pressure (Supine) (mmHg)","PARAMN":3,"ADT":"2013-11-06","ADY":111,"AVISIT":"Week 16","AVISITN":16,"AVAL":75,"AVALU":"mmHg","BASE":85,"CHG":-10,"PCHG":-11.7647,"ABLFL":"Y","TRT01A":"Xanomeline High Dose","TRT01AN":3,"SAFFL":"Y","ITTFL":"Y","SITEID":"701","AGE":71,"SEX":"M","RACE":"WHITE","ARMCD":"Xan_Hi","TRTSDT":"2013-07-19","TRTEDT":"2014-01-14"},{"STUDYID":"CDISCPILOT01","USUBJID":"01-701-1028","DOMAIN":"ADVS","PARAMCD":"DIABP","PARAM":"Diastolic Blood Pressure (Supine) (mmHg)","PARAMN":3,"ADT":"2013-12-04","ADY":139,"AVISIT":"Week 20","AVISITN":20,"AVAL":79,"AVALU":"mmHg","BASE":85,"CHG":-6,"PCHG":-7.0588,"ABLFL":"Y","TRT01A":"Xanomeline High Dose","TRT01AN":3,"SAFFL":"Y","ITTFL":"Y","SITEID":"701","AGE":71,"SEX":"M","RACE":"WHITE","ARMCD":"Xan_Hi","TRTSDT":"2013-07-19","TRTEDT":"2014-01-14"},{"STUDYID":"CDISCPILOT01","USUBJID":"01-701-1028","DOMAIN":"ADVS","PARAMCD":"DIABP","PARAM":"Diastolic Blood Pressure (Supine) (mmHg)","PARAMN":3,"ADT":"2014-01-06","ADY":172,"AVISIT":"Week 24","AVISITN":24,"AVAL":73,"AVALU":"mmHg","BASE":85,"CHG":-12,"PCHG":-14.1176,"ABLFL":"Y","TRT01A":"Xanomeline High Dose","TRT01AN":3,"SAFFL":"Y","ITTFL":"Y","SITEID":"701","AGE":71,"SEX":"M","RACE":"WHITE","ARMCD":"Xan_Hi","TRTSDT":"2013-07-19","TRTEDT":"2014-01-14"},{"STUDYID":"CDISCPILOT01","USUBJID":"01-701-1028","DOMAIN":"ADVS","PARAMCD":"DIABP","PARAM":"Diastolic Blood Pressure (Supine) (mmHg)","PARAMN":3,"ADT":"2014-01-14","ADY":180,"AVISIT":"Week 26","AVISITN":26,"AVAL":70,"AVALU":"mmHg","BASE":85,"CHG":-15,"PCHG":-17.6471,"ABLFL":"Y","TRT01A":"Xanomeline High Dose","TRT01AN":3,"SAFFL":"Y","ITTFL":"Y","SITEID":"701","AGE":71,"SEX":"M","RACE":"WHITE","ARMCD":"Xan_Hi","TRTSDT":"2013-07-19","TRTEDT":"2014-01-14"},{"STUDYID":"CDISCPILOT01","USUBJID":"01-701-1028","DOMAIN":"ADVS","PARAMCD":"VSDBPST","PARAM":"Diastolic Blood Pressure (Standing) (mmHg)","PARAMN":4,"ADT":"2013-07-11","ADY":-8,"AVISIT":"Screening","AVISITN":-2,"AVAL":70,"AVALU":"mmHg","BASE":76,"CHG":null,"PCHG":null,"ABLFL":"Y","TRT01A":"Xanomeline High Dose","TRT01AN":3,"SAFFL":"Y","ITTFL":"Y","SITEID":"701","AGE":71,"SEX":"M","RACE":"WHITE","ARMCD":"Xan_Hi","TRTSDT":"2013-07-19","TRTEDT":"2014-01-14"},{"STUDYID":"CDISCPILOT01","USUBJID":"01-701-1028","DOMAIN":"ADVS","PARAMCD":"VSDBPST","PARAM":"Diastolic Blood Pressure (Standing) (mmHg)","PARAMN":4,"ADT":"2013-07-19","ADY":1,"AVISIT":"Baseline","AVISITN":0,"AVAL":76,"AVALU":"mmHg","BASE":76,"CHG":null,"PCHG":null,"ABLFL":"Y","TRT01A":"Xanomeline High Dose","TRT01AN":3,"SAFFL":"Y","ITTFL":"Y","SITEID":"701","AGE":71,"SEX":"M","RACE":"WHITE","ARMCD":"Xan_Hi","TRTSDT":"2013-07-19","TRTEDT":"2014-01-14"},{"STUDYID":"CDISCPILOT01","USUBJID":"01-701-1028","DOMAIN":"ADVS","PARAMCD":"VSDBPST","PARAM":"Diastolic Blood Pressure (Standing) (mmHg)","PARAMN":4,"ADT":"2013-08-01","ADY":14,"AVISIT":"Week 2","AVISITN":2,"AVAL":80,"AVALU":"mmHg","BASE":76,"CHG":4,"PCHG":5.2632,"ABLFL":"Y","TRT01A":"Xanomeline High Dose","TRT01AN":3,"SAFFL":"Y","ITTFL":"Y","SITEID":"701","AGE":71,"SEX":"M","RACE":"WHITE","ARMCD":"Xan_Hi","TRTSDT":"2013-07-19","TRTEDT":"2014-01-14"},{"STUDYID":"CDISCPILOT01","USUBJID":"01-701-1028","DOMAIN":"ADVS","PARAMCD":"VSDBPST","PARAM":"Diastolic Blood Pressure (Standing) (mmHg)","PARAMN":4,"ADT":"2013-08-14","ADY":27,"AVISIT":"Week 4","AVISITN":4,"AVAL":72,"AVALU":"mmHg","BASE":76,"CHG":-4,"PCHG":-5.2632,"ABLFL":"Y","TRT01A":"Xanomeline High Dose","TRT01AN":3,"SAFFL":"Y","ITTFL":"Y","SITEID":"701","AGE":71,"SEX":"M","RACE":"WHITE","ARMCD":"Xan_Hi","TRTSDT":"2013-07-19","TRTEDT":"2014-01-14"},{"STUDYID":"CDISCPILOT01","USUBJID":"01-701-1028","DOMAIN":"ADVS","PARAMCD":"VSDBPST","PARAM":"Diastolic Blood Pressure (Standing) (mmHg)","PARAMN":4,"ADT":"2013-08-29","ADY":42,"AVISIT":"Week 6","AVISITN":6,"AVAL":77,"AVALU":"mmHg","BASE":76,"CHG":1,"PCHG":1.3158,"ABLFL":"Y","TRT01A":"Xanomeline High Dose","TRT01AN":3,"SAFFL":"Y","ITTFL":"Y","SITEID":"701","AGE":71,"SEX":"M","RACE":"WHITE","ARMCD":"Xan_Hi","TRTSDT":"2013-07-19","TRTEDT":"2014-01-14"},{"STUDYID":"CDISCPILOT01","USUBJID":"01-701-1028","DOMAIN":"ADVS","PARAMCD":"VSDBPST","PARAM":"Diastolic Blood Pressure (Standing) (mmHg)","PARAMN":4,"ADT":"2013-09-10","ADY":54,"AVISIT":"Week 8","AVISITN":8,"AVAL":81,"AVALU":"mmHg","BASE":76,"CHG":5,"PCHG":6.5789,"ABLFL":"Y","TRT01A":"Xanomeline High Dose","TRT01AN":3,"SAFFL":"Y","ITTFL":"Y","SITEID":"701","AGE":71,"SEX":"M","RACE":"WHITE","ARMCD":"Xan_Hi","TRTSDT":"2013-07-19","TRTEDT":"2014-01-14"},{"STUDYID":"CDISCPILOT01","USUBJID":"01-701-1028","DOMAIN":"ADVS","PARAMCD":"VSDBPST","PARAM":"Diastolic Blood Pressure (Standing) (mmHg)","PARAMN":4,"ADT":"2013-10-09","ADY":83,"AVISIT":"Week 12","AVISITN":12,"AVAL":83,"AVALU":"mmHg","BASE":76,"CHG":7,"PCHG":9.2105,"ABLFL":"Y","TRT01A":"Xanomeline High Dose","TRT01AN":3,"SAFFL":"Y","ITTFL":"Y","SITEID":"701","AGE":71,"SEX":"M","RACE":"WHITE","ARMCD":"Xan_Hi","TRTSDT":"2013-07-19","TRTEDT":"2014-01-14"},{"STUDYID":"CDISCPILOT01","USUBJID":"01-701-1028","DOMAIN":"ADVS","PARAMCD":"VSDBPST","PARAM":"Diastolic Blood Pressure (Standing) (mmHg)","PARAMN":4,"ADT":"2013-11-06","ADY":111,"AVISIT":"Week 16","AVISITN":16,"AVAL":76,"AVALU":"mmHg","BASE":76,"CHG":0,"PCHG":0,"ABLFL":"Y","TRT01A":"Xanomeline High Dose","TRT01AN":3,"SAFFL":"Y","ITTFL":"Y","SITEID":"701","AGE":71,"SEX":"M","RACE":"WHITE","ARMCD":"Xan_Hi","TRTSDT":"2013-07-19","TRTEDT":"2014-01-14"},{"STUDYID":"CDISCPILOT01","USUBJID":"01-701-1028","DOMAIN":"ADVS","PARAMCD":"VSDBPST","PARAM":"Diastolic Blood Pressure (Standing) (mmHg)","PARAMN":4,"ADT":"2013-12-04","ADY":139,"AVISIT":"Week 20","AVISITN":20,"AVAL":76,"AVALU":"mmHg","BASE":76,"CHG":0,"PCHG":0,"ABLFL":"Y","TRT01A":"Xanomeline High Dose","TRT01AN":3,"SAFFL":"Y","ITTFL":"Y","SITEID":"701","AGE":71,"SEX":"M","RACE":"WHITE","ARMCD":"Xan_Hi","TRTSDT":"2013-07-19","TRTEDT":"2014-01-14"},{"STUDYID":"CDISCPILOT01","USUBJID":"01-701-1028","DOMAIN":"ADVS","PARAMCD":"VSDBPST","PARAM":"Diastolic Blood Pressure (Standing) (mmHg)","PARAMN":4,"ADT":"2014-01-06","ADY":172,"AVISIT":"Week 24","AVISITN":24,"AVAL":72,"AVALU":"mmHg","BASE":76,"CHG":-4,"PCHG":-5.2632,"ABLFL":"Y","TRT01A":"Xanomeline High Dose","TRT01AN":3,"SAFFL":"Y","ITTFL":"Y","SITEID":"701","AGE":71,"SEX":"M","RACE":"WHITE","ARMCD":"Xan_Hi","TRTSDT":"2013-07-19","TRTEDT":"2014-01-14"},{"STUDYID":"CDISCPILOT01","USUBJID":"01-701-1028","DOMAIN":"ADVS","PARAMCD":"VSDBPST","PARAM":"Diastolic Blood Pressure (Standing) (mmHg)","PARAMN":4,"ADT":"2014-01-14","ADY":180,"AVISIT":"Week 26","AVISITN":26,"AVAL":79,"AVALU":"mmHg","BASE":76,"CHG":3,"PCHG":3.9474,"ABLFL":"Y","TRT01A":"Xanomeline High Dose","TRT01AN":3,"SAFFL":"Y","ITTFL":"Y","SITEID":"701","AGE":71,"SEX":"M","RACE":"WHITE","ARMCD":"Xan_Hi","TRTSDT":"2013-07-19","TRTEDT":"2014-01-14"},{"STUDYID":"CDISCPILOT01","USUBJID":"01-701-1028","DOMAIN":"ADVS","PARAMCD":"PULSE","PARAM":"Pulse Rate (Supine) (beats/min)","PARAMN":5,"ADT":"2013-07-11","ADY":-8,"AVISIT":"Screening","AVISITN":-2,"AVAL":54,"AVALU":"BEATS/MIN","BASE":62,"CHG":null,"PCHG":null,"ABLFL":"Y","TRT01A":"Xanomeline High Dose","TRT01AN":3,"SAFFL":"Y","ITTFL":"Y","SITEID":"701","AGE":71,"SEX":"M","RACE":"WHITE","ARMCD":"Xan_Hi","TRTSDT":"2013-07-19","TRTEDT":"2014-01-14"},{"STUDYID":"CDISCPILOT01","USUBJID":"01-701-1028","DOMAIN":"ADVS","PARAMCD":"PULSE","PARAM":"Pulse Rate (Supine) (beats/min)","PARAMN":5,"ADT":"2013-07-19","ADY":1,"AVISIT":"Baseline","AVISITN":0,"AVAL":62,"AVALU":"BEATS/MIN","BASE":62,"CHG":null,"PCHG":null,"ABLFL":"Y","TRT01A":"Xanomeline High Dose","TRT01AN":3,"SAFFL":"Y","ITTFL":"Y","SITEID":"701","AGE":71,"SEX":"M","RACE":"WHITE","ARMCD":"Xan_Hi","TRTSDT":"2013-07-19","TRTEDT":"2014-01-14"},{"STUDYID":"CDISCPILOT01","USUBJID":"01-701-1028","DOMAIN":"ADVS","PARAMCD":"PULSE","PARAM":"Pulse Rate (Supine) (beats/min)","PARAMN":5,"ADT":"2013-08-01","ADY":14,"AVISIT":"Week 2","AVISITN":2,"AVAL":65,"AVALU":"BEATS/MIN","BASE":62,"CHG":3,"PCHG":4.8387,"ABLFL":"Y","TRT01A":"Xanomeline High Dose","TRT01AN":3,"SAFFL":"Y","ITTFL":"Y","SITEID":"701","AGE":71,"SEX":"M","RACE":"WHITE","ARMCD":"Xan_Hi","TRTSDT":"2013-07-19","TRTEDT":"2014-01-14"},{"STUDYID":"CDISCPILOT01","USUBJID":"01-701-1028","DOMAIN":"ADVS","PARAMCD":"PULSE","PARAM":"Pulse Rate (Supine) (beats/min)","PARAMN":5,"ADT":"2013-08-14","ADY":27,"AVISIT":"Week 4","AVISITN":4,"AVAL":68,"AVALU":"BEATS/MIN","BASE":62,"CHG":6,"PCHG":9.6774,"ABLFL":"Y","TRT01A":"Xanomeline High Dose","TRT01AN":3,"SAFFL":"Y","ITTFL":"Y","SITEID":"701","AGE":71,"SEX":"M","RACE":"WHITE","ARMCD":"Xan_Hi","TRTSDT":"2013-07-19","TRTEDT":"2014-01-14"},{"STUDYID":"CDISCPILOT01","USUBJID":"01-701-1028","DOMAIN":"ADVS","PARAMCD":"PULSE","PARAM":"Pulse Rate (Supine) (beats/min)","PARAMN":5,"ADT":"2013-08-29","ADY":42,"AVISIT":"Week 6","AVISITN":6,"AVAL":56,"AVALU":"BEATS/MIN","BASE":62,"CHG":-6,"PCHG":-9.6774,"ABLFL":"Y","TRT01A":"Xanomeline High Dose","TRT01AN":3,"SAFFL":"Y","ITTFL":"Y","SITEID":"701","AGE":71,"SEX":"M","RACE":"WHITE","ARMCD":"Xan_Hi","TRTSDT":"2013-07-19","TRTEDT":"2014-01-14"},{"STUDYID":"CDISCPILOT01","USUBJID":"01-701-1028","DOMAIN":"ADVS","PARAMCD":"PULSE","PARAM":"Pulse Rate (Supine) (beats/min)","PARAMN":5,"ADT":"2013-09-10","ADY":54,"AVISIT":"Week 8","AVISITN":8,"AVAL":67,"AVALU":"BEATS/MIN","BASE":62,"CHG":5,"PCHG":8.0645,"ABLFL":"Y","TRT01A":"Xanomeline High Dose","TRT01AN":3,"SAFFL":"Y","ITTFL":"Y","SITEID":"701","AGE":71,"SEX":"M","RACE":"WHITE","ARMCD":"Xan_Hi","TRTSDT":"2013-07-19","TRTEDT":"2014-01-14"},{"STUDYID":"CDISCPILOT01","USUBJID":"01-701-1028","DOMAIN":"ADVS","PARAMCD":"PULSE","PARAM":"Pulse Rate (Supine) (beats/min)","PARAMN":5,"ADT":"2013-10-09","ADY":83,"AVISIT":"Week 12","AVISITN":12,"AVAL":61,"AVALU":"BEATS/MIN","BASE":62,"CHG":-1,"PCHG":-1.6129,"ABLFL":"Y","TRT01A":"Xanomeline High Dose","TRT01AN":3,"SAFFL":"Y","ITTFL":"Y","SITEID":"701","AGE":71,"SEX":"M","RACE":"WHITE","ARMCD":"Xan_Hi","TRTSDT":"2013-07-19","TRTEDT":"2014-01-14"},{"STUDYID":"CDISCPILOT01","USUBJID":"01-701-1028","DOMAIN":"ADVS","PARAMCD":"PULSE","PARAM":"Pulse Rate (Supine) (beats/min)","PARAMN":5,"ADT":"2013-11-06","ADY":111,"AVISIT":"Week 16","AVISITN":16,"AVAL":60,"AVALU":"BEATS/MIN","BASE":62,"CHG":-2,"PCHG":-3.2258,"ABLFL":"Y","TRT01A":"Xanomeline High Dose","TRT01AN":3,"SAFFL":"Y","ITTFL":"Y","SITEID":"701","AGE":71,"SEX":"M","RACE":"WHITE","ARMCD":"Xan_Hi","TRTSDT":"2013-07-19","TRTEDT":"2014-01-14"},{"STUDYID":"CDISCPILOT01","USUBJID":"01-701-1028","DOMAIN":"ADVS","PARAMCD":"PULSE","PARAM":"Pulse Rate (Supine) (beats/min)","PARAMN":5,"ADT":"2013-12-04","ADY":139,"AVISIT":"Week 20","AVISITN":20,"AVAL":60,"AVALU":"BEATS/MIN","BASE":62,"CHG":-2,"PCHG":-3.2258,"ABLFL":"Y","TRT01A":"Xanomeline High Dose","TRT01AN":3,"SAFFL":"Y","ITTFL":"Y","SITEID":"701","AGE":71,"SEX":"M","RACE":"WHITE","ARMCD":"Xan_Hi","TRTSDT":"2013-07-19","TRTEDT":"2014-01-14"},{"STUDYID":"CDISCPILOT01","USUBJID":"01-701-1028","DOMAIN":"ADVS","PARAMCD":"PULSE","PARAM":"Pulse Rate (Supine) (beats/min)","PARAMN":5,"ADT":"2014-01-06","ADY":172,"AVISIT":"Week 24","AVISITN":24,"AVAL":62,"AVALU":"BEATS/MIN","BASE":62,"CHG":0,"PCHG":0,"ABLFL":"Y","TRT01A":"Xanomeline High Dose","TRT01AN":3,"SAFFL":"Y","ITTFL":"Y","SITEID":"701","AGE":71,"SEX":"M","RACE":"WHITE","ARMCD":"Xan_Hi","TRTSDT":"2013-07-19","TRTEDT":"2014-01-14"},{"STUDYID":"CDISCPILOT01","USUBJID":"01-701-1028","DOMAIN":"ADVS","PARAMCD":"PULSE","PARAM":"Pulse Rate (Supine) (beats/min)","PARAMN":5,"ADT":"2014-01-14","ADY":180,"AVISIT":"Week 26","AVISITN":26,"AVAL":53,"AVALU":"BEATS/MIN","BASE":62,"CHG":-9,"PCHG":-14.5161,"ABLFL":"Y","TRT01A":"Xanomeline High Dose","TRT01AN":3,"SAFFL":"Y","ITTFL":"Y","SITEID":"701","AGE":71,"SEX":"M","RACE":"WHITE","ARMCD":"Xan_Hi","TRTSDT":"2013-07-19","TRTEDT":"2014-01-14"},{"STUDYID":"CDISCPILOT01","USUBJID":"01-701-1028","DOMAIN":"ADVS","PARAMCD":"VSPULST","PARAM":"Pulse Rate (Standing) (beats/min)","PARAMN":6,"ADT":"2013-07-11","ADY":-8,"AVISIT":"Screening","AVISITN":-2,"AVAL":59,"AVALU":"BEATS/MIN","BASE":62,"CHG":null,"PCHG":null,"ABLFL":"Y","TRT01A":"Xanomeline High Dose","TRT01AN":3,"SAFFL":"Y","ITTFL":"Y","SITEID":"701","AGE":71,"SEX":"M","RACE":"WHITE","ARMCD":"Xan_Hi","TRTSDT":"2013-07-19","TRTEDT":"2014-01-14"},{"STUDYID":"CDISCPILOT01","USUBJID":"01-701-1028","DOMAIN":"ADVS","PARAMCD":"VSPULST","PARAM":"Pulse Rate (Standing) (beats/min)","PARAMN":6,"ADT":"2013-07-19","ADY":1,"AVISIT":"Baseline","AVISITN":0,"AVAL":62,"AVALU":"BEATS/MIN","BASE":62,"CHG":null,"PCHG":null,"ABLFL":"Y","TRT01A":"Xanomeline High Dose","TRT01AN":3,"SAFFL":"Y","ITTFL":"Y","SITEID":"701","AGE":71,"SEX":"M","RACE":"WHITE","ARMCD":"Xan_Hi","TRTSDT":"2013-07-19","TRTEDT":"2014-01-14"},{"STUDYID":"CDISCPILOT01","USUBJID":"01-701-1028","DOMAIN":"ADVS","PARAMCD":"VSPULST","PARAM":"Pulse Rate (Standing) (beats/min)","PARAMN":6,"ADT":"2013-08-01","ADY":14,"AVISIT":"Week 2","AVISITN":2,"AVAL":77,"AVALU":"BEATS/MIN","BASE":62,"CHG":15,"PCHG":24.1935,"ABLFL":"Y","TRT01A":"Xanomeline High Dose","TRT01AN":3,"SAFFL":"Y","ITTFL":"Y","SITEID":"701","AGE":71,"SEX":"M","RACE":"WHITE","ARMCD":"Xan_Hi","TRTSDT":"2013-07-19","TRTEDT":"2014-01-14"},{"STUDYID":"CDISCPILOT01","USUBJID":"01-701-1028","DOMAIN":"ADVS","PARAMCD":"VSPULST","PARAM":"Pulse Rate (Standing) (beats/min)","PARAMN":6,"ADT":"2013-08-14","ADY":27,"AVISIT":"Week 4","AVISITN":4,"AVAL":81,"AVALU":"BEATS/MIN","BASE":62,"CHG":19,"PCHG":30.6452,"ABLFL":"Y","TRT01A":"Xanomeline High Dose","TRT01AN":3,"SAFFL":"Y","ITTFL":"Y","SITEID":"701","AGE":71,"SEX":"M","RACE":"WHITE","ARMCD":"Xan_Hi","TRTSDT":"2013-07-19","TRTEDT":"2014-01-14"},{"STUDYID":"CDISCPILOT01","USUBJID":"01-701-1028","DOMAIN":"ADVS","PARAMCD":"VSPULST","PARAM":"Pulse Rate (Standing) (beats/min)","PARAMN":6,"ADT":"2013-08-29","ADY":42,"AVISIT":"Week 6","AVISITN":6,"AVAL":60,"AVALU":"BEATS/MIN","BASE":62,"CHG":-2,"PCHG":-3.2258,"ABLFL":"Y","TRT01A":"Xanomeline High Dose","TRT01AN":3,"SAFFL":"Y","ITTFL":"Y","SITEID":"701","AGE":71,"SEX":"M","RACE":"WHITE","ARMCD":"Xan_Hi","TRTSDT":"2013-07-19","TRTEDT":"2014-01-14"},{"STUDYID":"CDISCPILOT01","USUBJID":"01-701-1028","DOMAIN":"ADVS","PARAMCD":"VSPULST","PARAM":"Pulse Rate (Standing) (beats/min)","PARAMN":6,"ADT":"2013-09-10","ADY":54,"AVISIT":"Week 8","AVISITN":8,"AVAL":76,"AVALU":"BEATS/MIN","BASE":62,"CHG":14,"PCHG":22.5806,"ABLFL":"Y","TRT01A":"Xanomeline High Dose","TRT01AN":3,"SAFFL":"Y","ITTFL":"Y","SITEID":"701","AGE":71,"SEX":"M","RACE":"WHITE","ARMCD":"Xan_Hi","TRTSDT":"2013-07-19","TRTEDT":"2014-01-14"},{"STUDYID":"CDISCPILOT01","USUBJID":"01-701-1028","DOMAIN":"ADVS","PARAMCD":"VSPULST","PARAM":"Pulse Rate (Standing) (beats/min)","PARAMN":6,"ADT":"2013-10-09","ADY":83,"AVISIT":"Week 12","AVISITN":12,"AVAL":64,"AVALU":"BEATS/MIN","BASE":62,"CHG":2,"PCHG":3.2258,"ABLFL":"Y","TRT01A":"Xanomeline High Dose","TRT01AN":3,"SAFFL":"Y","ITTFL":"Y","SITEID":"701","AGE":71,"SEX":"M","RACE":"WHITE","ARMCD":"Xan_Hi","TRTSDT":"2013-07-19","TRTEDT":"2014-01-14"},{"STUDYID":"CDISCPILOT01","USUBJID":"01-701-1028","DOMAIN":"ADVS","PARAMCD":"VSPULST","PARAM":"Pulse Rate (Standing) (beats/min)","PARAMN":6,"ADT":"2013-11-06","ADY":111,"AVISIT":"Week 16","AVISITN":16,"AVAL":70,"AVALU":"BEATS/MIN","BASE":62,"CHG":8,"PCHG":12.9032,"ABLFL":"Y","TRT01A":"Xanomeline High Dose","TRT01AN":3,"SAFFL":"Y","ITTFL":"Y","SITEID":"701","AGE":71,"SEX":"M","RACE":"WHITE","ARMCD":"Xan_Hi","TRTSDT":"2013-07-19","TRTEDT":"2014-01-14"},{"STUDYID":"CDISCPILOT01","USUBJID":"01-701-1028","DOMAIN":"ADVS","PARAMCD":"VSPULST","PARAM":"Pulse Rate (Standing) (beats/min)","PARAMN":6,"ADT":"2013-12-04","ADY":139,"AVISIT":"Week 20","AVISITN":20,"AVAL":67,"AVALU":"BEATS/MIN","BASE":62,"CHG":5,"PCHG":8.0645,"ABLFL":"Y","TRT01A":"Xanomeline High Dose","TRT01AN":3,"SAFFL":"Y","ITTFL":"Y","SITEID":"701","AGE":71,"SEX":"M","RACE":"WHITE","ARMCD":"Xan_Hi","TRTSDT":"2013-07-19","TRTEDT":"2014-01-14"},{"STUDYID":"CDISCPILOT01","USUBJID":"01-701-1028","DOMAIN":"ADVS","PARAMCD":"VSPULST","PARAM":"Pulse Rate (Standing) (beats/min)","PARAMN":6,"ADT":"2014-01-06","ADY":172,"AVISIT":"Week 24","AVISITN":24,"AVAL":72,"AVALU":"BEATS/MIN","BASE":62,"CHG":10,"PCHG":16.129,"ABLFL":"Y","TRT01A":"Xanomeline High Dose","TRT01AN":3,"SAFFL":"Y","ITTFL":"Y","SITEID":"701","AGE":71,"SEX":"M","RACE":"WHITE","ARMCD":"Xan_Hi","TRTSDT":"2013-07-19","TRTEDT":"2014-01-14"},{"STUDYID":"CDISCPILOT01","USUBJID":"01-701-1028","DOMAIN":"ADVS","PARAMCD":"VSPULST","PARAM":"Pulse Rate (Standing) (beats/min)","PARAMN":6,"ADT":"2014-01-14","ADY":180,"AVISIT":"Week 26","AVISITN":26,"AVAL":58,"AVALU":"BEATS/MIN","BASE":62,"CHG":-4,"PCHG":-6.4516,"ABLFL":"Y","TRT01A":"Xanomeline High Dose","TRT01AN":3,"SAFFL":"Y","ITTFL":"Y","SITEID":"701","AGE":71,"SEX":"M","RACE":"WHITE","ARMCD":"Xan_Hi","TRTSDT":"2013-07-19","TRTEDT":"2014-01-14"},{"STUDYID":"CDISCPILOT01","USUBJID":"01-701-1028","DOMAIN":"ADVS","PARAMCD":"WEIGHT","PARAM":"Weight (kg)","PARAMN":7,"ADT":"2013-07-11","ADY":-8,"AVISIT":"Screening","AVISITN":-2,"AVAL":98.88,"AVALU":"kg","BASE":99.34,"CHG":null,"PCHG":null,"ABLFL":"Y","TRT01A":"Xanomeline High Dose","TRT01AN":3,"SAFFL":"Y","ITTFL":"Y","SITEID":"701","AGE":71,"SEX":"M","RACE":"WHITE","ARMCD":"Xan_Hi","TRTSDT":"2013-07-19","TRTEDT":"2014-01-14"},{"STUDYID":"CDISCPILOT01","USUBJID":"01-701-1028","DOMAIN":"ADVS","PARAMCD":"WEIGHT","PARAM":"Weight (kg)","PARAMN":7,"ADT":"2013-07-19","ADY":1,"AVISIT":"Baseline","AVISITN":0,"AVAL":99.34,"AVALU":"kg","BASE":99.34,"CHG":null,"PCHG":null,"ABLFL":"Y","TRT01A":"Xanomeline High Dose","TRT01AN":3,"SAFFL":"Y","ITTFL":"Y","SITEID":"701","AGE":71,"SEX":"M","RACE":"WHITE","ARMCD":"Xan_Hi","TRTSDT":"2013-07-19","TRTEDT":"2014-01-14"},{"STUDYID":"CDISCPILOT01","USUBJID":"01-701-1028","DOMAIN":"ADVS","PARAMCD":"WEIGHT","PARAM":"Weight (kg)","PARAMN":7,"ADT":"2013-08-01","ADY":14,"AVISIT":"Week 2","AVISITN":2,"AVAL":99.34,"AVALU":"kg","BASE":99.34,"CHG":0,"PCHG":0,"ABLFL":"Y","TRT01A":"Xanomeline High Dose","TRT01AN":3,"SAFFL":"Y","ITTFL":"Y","SITEID":"701","AGE":71,"SEX":"M","RACE":"WHITE","ARMCD":"Xan_Hi","TRTSDT":"2013-07-19","TRTEDT":"2014-01-14"},{"STUDYID":"CDISCPILOT01","USUBJID":"01-701-1028","DOMAIN":"ADVS","PARAMCD":"WEIGHT","PARAM":"Weight (kg)","PARAMN":7,"ADT":"2013-08-14","ADY":27,"AVISIT":"Week 4","AVISITN":4,"AVAL":98.88,"AVALU":"kg","BASE":99.34,"CHG":-0.46,"PCHG":-0.4631,"ABLFL":"Y","TRT01A":"Xanomeline High Dose","TRT01AN":3,"SAFFL":"Y","ITTFL":"Y","SITEID":"701","AGE":71,"SEX":"M","RACE":"WHITE","ARMCD":"Xan_Hi","TRTSDT":"2013-07-19","TRTEDT":"2014-01-14"},{"STUDYID":"CDISCPILOT01","USUBJID":"01-701-1028","DOMAIN":"ADVS","PARAMCD":"WEIGHT","PARAM":"Weight (kg)","PARAMN":7,"ADT":"2013-08-29","ADY":42,"AVISIT":"Week 6","AVISITN":6,"AVAL":98.43,"AVALU":"kg","BASE":99.34,"CHG":-0.91,"PCHG":-0.916,"ABLFL":"Y","TRT01A":"Xanomeline High Dose","TRT01AN":3,"SAFFL":"Y","ITTFL":"Y","SITEID":"701","AGE":71,"SEX":"M","RACE":"WHITE","ARMCD":"Xan_Hi","TRTSDT":"2013-07-19","TRTEDT":"2014-01-14"},{"STUDYID":"CDISCPILOT01","USUBJID":"01-701-1028","DOMAIN":"ADVS","PARAMCD":"WEIGHT","PARAM":"Weight (kg)","PARAMN":7,"ADT":"2013-09-10","ADY":54,"AVISIT":"Week 8","AVISITN":8,"AVAL":99.34,"AVALU":"kg","BASE":99.34,"CHG":0,"PCHG":0,"ABLFL":"Y","TRT01A":"Xanomeline High Dose","TRT01AN":3,"SAFFL":"Y","ITTFL":"Y","SITEID":"701","AGE":71,"SEX":"M","RACE":"WHITE","ARMCD":"Xan_Hi","TRTSDT":"2013-07-19","TRTEDT":"2014-01-14"},{"STUDYID":"CDISCPILOT01","USUBJID":"01-701-1028","DOMAIN":"ADVS","PARAMCD":"WEIGHT","PARAM":"Weight (kg)","PARAMN":7,"ADT":"2013-10-09","ADY":83,"AVISIT":"Week 12","AVISITN":12,"AVAL":98.88,"AVALU":"kg","BASE":99.34,"CHG":-0.46,"PCHG":-0.4631,"ABLFL":"Y","TRT01A":"Xanomeline High Dose","TRT01AN":3,"SAFFL":"Y","ITTFL":"Y","SITEID":"701","AGE":71,"SEX":"M","RACE":"WHITE","ARMCD":"Xan_Hi","TRTSDT":"2013-07-19","TRTEDT":"2014-01-14"},{"STUDYID":"CDISCPILOT01","USUBJID":"01-701-1028","DOMAIN":"ADVS","PARAMCD":"WEIGHT","PARAM":"Weight (kg)","PARAMN":7,"ADT":"2013-11-06","ADY":111,"AVISIT":"Week 16","AVISITN":16,"AVAL":99.79,"AVALU":"kg","BASE":99.34,"CHG":0.45,"PCHG":0.453,"ABLFL":"Y","TRT01A":"Xanomeline High Dose","TRT01AN":3,"SAFFL":"Y","ITTFL":"Y","SITEID":"701","AGE":71,"SEX":"M","RACE":"WHITE","ARMCD":"Xan_Hi","TRTSDT":"2013-07-19","TRTEDT":"2014-01-14"},{"STUDYID":"CDISCPILOT01","USUBJID":"01-701-1028","DOMAIN":"ADVS","PARAMCD":"WEIGHT","PARAM":"Weight (kg)","PARAMN":7,"ADT":"2013-12-04","ADY":139,"AVISIT":"Week 20","AVISITN":20,"AVAL":99.79,"AVALU":"kg","BASE":99.34,"CHG":0.45,"PCHG":0.453,"ABLFL":"Y","TRT01A":"Xanomeline High Dose","TRT01AN":3,"SAFFL":"Y","ITTFL":"Y","SITEID":"701","AGE":71,"SEX":"M","RACE":"WHITE","ARMCD":"Xan_Hi","TRTSDT":"2013-07-19","TRTEDT":"2014-01-14"},{"STUDYID":"CDISCPILOT01","USUBJID":"01-701-1028","DOMAIN":"ADVS","PARAMCD":"WEIGHT","PARAM":"Weight (kg)","PARAMN":7,"ADT":"2014-01-06","ADY":172,"AVISIT":"Week 24","AVISITN":24,"AVAL":99.34,"AVALU":"kg","BASE":99.34,"CHG":0,"PCHG":0,"ABLFL":"Y","TRT01A":"Xanomeline High Dose","TRT01AN":3,"SAFFL":"Y","ITTFL":"Y","SITEID":"701","AGE":71,"SEX":"M","RACE":"WHITE","ARMCD":"Xan_Hi","TRTSDT":"2013-07-19","TRTEDT":"2014-01-14"},{"STUDYID":"CDISCPILOT01","USUBJID":"01-701-1028","DOMAIN":"ADVS","PARAMCD":"WEIGHT","PARAM":"Weight (kg)","PARAMN":7,"ADT":"2014-01-14","ADY":180,"AVISIT":"Week 26","AVISITN":26,"AVAL":99.79,"AVALU":"kg","BASE":99.34,"CHG":0.45,"PCHG":0.453,"ABLFL":"Y","TRT01A":"Xanomeline High Dose","TRT01AN":3,"SAFFL":"Y","ITTFL":"Y","SITEID":"701","AGE":71,"SEX":"M","RACE":"WHITE","ARMCD":"Xan_Hi","TRTSDT":"2013-07-19","TRTEDT":"2014-01-14"},{"STUDYID":"CDISCPILOT01","USUBJID":"01-701-1028","DOMAIN":"ADVS","PARAMCD":"HEIGHT","PARAM":"Height (cm)","PARAMN":8,"ADT":"2013-07-11","ADY":-8,"AVISIT":"Screening","AVISITN":-2,"AVAL":177.8,"AVALU":"cm","BASE":177.8,"CHG":null,"PCHG":null,"ABLFL":"Y","TRT01A":"Xanomeline High Dose","TRT01AN":3,"SAFFL":"Y","ITTFL":"Y","SITEID":"701","AGE":71,"SEX":"M","RACE":"WHITE","ARMCD":"Xan_Hi","TRTSDT":"2013-07-19","TRTEDT":"2014-01-14"},{"STUDYID":"CDISCPILOT01","USUBJID":"01-701-1028","DOMAIN":"ADVS","PARAMCD":"TEMP","PARAM":"Temperature (C)","PARAMN":9,"ADT":"2013-07-11","ADY":-8,"AVISIT":"Screening","AVISITN":-2,"AVAL":36.94,"AVALU":"C","BASE":37,"CHG":null,"PCHG":null,"ABLFL":"Y","TRT01A":"Xanomeline High Dose","TRT01AN":3,"SAFFL":"Y","ITTFL":"Y","SITEID":"701","AGE":71,"SEX":"M","RACE":"WHITE","ARMCD":"Xan_Hi","TRTSDT":"2013-07-19","TRTEDT":"2014-01-14"},{"STUDYID":"CDISCPILOT01","USUBJID":"01-701-1028","DOMAIN":"ADVS","PARAMCD":"TEMP","PARAM":"Temperature (C)","PARAMN":9,"ADT":"2013-07-19","ADY":1,"AVISIT":"Baseline","AVISITN":0,"AVAL":37,"AVALU":"C","BASE":37,"CHG":null,"PCHG":null,"ABLFL":"Y","TRT01A":"Xanomeline High Dose","TRT01AN":3,"SAFFL":"Y","ITTFL":"Y","SITEID":"701","AGE":71,"SEX":"M","RACE":"WHITE","ARMCD":"Xan_Hi","TRTSDT":"2013-07-19","TRTEDT":"2014-01-14"},{"STUDYID":"CDISCPILOT01","USUBJID":"01-701-1028","DOMAIN":"ADVS","PARAMCD":"TEMP","PARAM":"Temperature (C)","PARAMN":9,"ADT":"2013-08-01","ADY":14,"AVISIT":"Week 2","AVISITN":2,"AVAL":37.22,"AVALU":"C","BASE":37,"CHG":0.22,"PCHG":0.5946,"ABLFL":"Y","TRT01A":"Xanomeline High Dose","TRT01AN":3,"SAFFL":"Y","ITTFL":"Y","SITEID":"701","AGE":71,"SEX":"M","RACE":"WHITE","ARMCD":"Xan_Hi","TRTSDT":"2013-07-19","TRTEDT":"2014-01-14"},{"STUDYID":"CDISCPILOT01","USUBJID":"01-701-1028","DOMAIN":"ADVS","PARAMCD":"TEMP","PARAM":"Temperature (C)","PARAMN":9,"ADT":"2013-08-14","ADY":27,"AVISIT":"Week 4","AVISITN":4,"AVAL":36.94,"AVALU":"C","BASE":37,"CHG":-0.06,"PCHG":-0.1622,"ABLFL":"Y","TRT01A":"Xanomeline High Dose","TRT01AN":3,"SAFFL":"Y","ITTFL":"Y","SITEID":"701","AGE":71,"SEX":"M","RACE":"WHITE","ARMCD":"Xan_Hi","TRTSDT":"2013-07-19","TRTEDT":"2014-01-14"},{"STUDYID":"CDISCPILOT01","USUBJID":"01-701-1028","DOMAIN":"ADVS","PARAMCD":"TEMP","PARAM":"Temperature (C)","PARAMN":9,"ADT":"2013-08-29","ADY":42,"AVISIT":"Week 6","AVISITN":6,"AVAL":36.5,"AVALU":"C","BASE":37,"CHG":-0.5,"PCHG":-1.3514,"ABLFL":"Y","TRT01A":"Xanomeline High Dose","TRT01AN":3,"SAFFL":"Y","ITTFL":"Y","SITEID":"701","AGE":71,"SEX":"M","RACE":"WHITE","ARMCD":"Xan_Hi","TRTSDT":"2013-07-19","TRTEDT":"2014-01-14"},{"STUDYID":"CDISCPILOT01","USUBJID":"01-701-1028","DOMAIN":"ADVS","PARAMCD":"TEMP","PARAM":"Temperature (C)","PARAMN":9,"ADT":"2013-09-10","ADY":54,"AVISIT":"Week 8","AVISITN":8,"AVAL":36.72,"AVALU":"C","BASE":37,"CHG":-0.28,"PCHG":-0.7568,"ABLFL":"Y","TRT01A":"Xanomeline High Dose","TRT01AN":3,"SAFFL":"Y","ITTFL":"Y","SITEID":"701","AGE":71,"SEX":"M","RACE":"WHITE","ARMCD":"Xan_Hi","TRTSDT":"2013-07-19","TRTEDT":"2014-01-14"},{"STUDYID":"CDISCPILOT01","USUBJID":"01-701-1028","DOMAIN":"ADVS","PARAMCD":"TEMP","PARAM":"Temperature (C)","PARAMN":9,"ADT":"2013-10-09","ADY":83,"AVISIT":"Week 12","AVISITN":12,"AVAL":36.83,"AVALU":"C","BASE":37,"CHG":-0.17,"PCHG":-0.4595,"ABLFL":"Y","TRT01A":"Xanomeline High Dose","TRT01AN":3,"SAFFL":"Y","ITTFL":"Y","SITEID":"701","AGE":71,"SEX":"M","RACE":"WHITE","ARMCD":"Xan_Hi","TRTSDT":"2013-07-19","TRTEDT":"2014-01-14"},{"STUDYID":"CDISCPILOT01","USUBJID":"01-701-1028","DOMAIN":"ADVS","PARAMCD":"TEMP","PARAM":"Temperature (C)","PARAMN":9,"ADT":"2013-11-06","ADY":111,"AVISIT":"Week 16","AVISITN":16,"AVAL":36.56,"AVALU":"C","BASE":37,"CHG":-0.44,"PCHG":-1.1892,"ABLFL":"Y","TRT01A":"Xanomeline High Dose","TRT01AN":3,"SAFFL":"Y","ITTFL":"Y","SITEID":"701","AGE":71,"SEX":"M","RACE":"WHITE","ARMCD":"Xan_Hi","TRTSDT":"2013-07-19","TRTEDT":"2014-01-14"},{"STUDYID":"CDISCPILOT01","USUBJID":"01-701-1028","DOMAIN":"ADVS","PARAMCD":"TEMP","PARAM":"Temperature (C)","PARAMN":9,"ADT":"2013-12-04","ADY":139,"AVISIT":"Week 20","AVISITN":20,"AVAL":36.44,"AVALU":"C","BASE":37,"CHG":-0.56,"PCHG":-1.5135,"ABLFL":"Y","TRT01A":"Xanomeline High Dose","TRT01AN":3,"SAFFL":"Y","ITTFL":"Y","SITEID":"701","AGE":71,"SEX":"M","RACE":"WHITE","ARMCD":"Xan_Hi","TRTSDT":"2013-07-19","TRTEDT":"2014-01-14"},{"STUDYID":"CDISCPILOT01","USUBJID":"01-701-1028","DOMAIN":"ADVS","PARAMCD":"TEMP","PARAM":"Temperature (C)","PARAMN":9,"ADT":"2014-01-06","ADY":172,"AVISIT":"Week 24","AVISITN":24,"AVAL":37.11,"AVALU":"C","BASE":37,"CHG":0.11,"PCHG":0.2973,"ABLFL":"Y","TRT01A":"Xanomeline High Dose","TRT01AN":3,"SAFFL":"Y","ITTFL":"Y","SITEID":"701","AGE":71,"SEX":"M","RACE":"WHITE","ARMCD":"Xan_Hi","TRTSDT":"2013-07-19","TRTEDT":"2014-01-14"},{"STUDYID":"CDISCPILOT01","USUBJID":"01-701-1028","DOMAIN":"ADVS","PARAMCD":"TEMP","PARAM":"Temperature (C)","PARAMN":9,"ADT":"2014-01-14","ADY":180,"AVISIT":"Week 26","AVISITN":26,"AVAL":36.56,"AVALU":"C","BASE":37,"CHG":-0.44,"PCHG":-1.1892,"ABLFL":"Y","TRT01A":"Xanomeline High Dose","TRT01AN":3,"SAFFL":"Y","ITTFL":"Y","SITEID":"701","AGE":71,"SEX":"M","RACE":"WHITE","ARMCD":"Xan_Hi","TRTSDT":"2013-07-19","TRTEDT":"2014-01-14"},{"STUDYID":"CDISCPILOT01","USUBJID":"01-701-1033","DOMAIN":"ADVS","PARAMCD":"SYSBP","PARAM":"Systolic Blood Pressure (Supine) (mmHg)","PARAMN":1,"ADT":"2014-03-10","ADY":-8,"AVISIT":"Screening","AVISITN":-2,"AVAL":128,"AVALU":"mmHg","BASE":136,"CHG":null,"PCHG":null,"ABLFL":"Y","TRT01A":"Xanomeline Low Dose","TRT01AN":2,"SAFFL":"Y","ITTFL":"Y","SITEID":"701","AGE":74,"SEX":"M","RACE":"WHITE","ARMCD":"Xan_Lo","TRTSDT":"2014-03-18","TRTEDT":"2014-03-31"},{"STUDYID":"CDISCPILOT01","USUBJID":"01-701-1033","DOMAIN":"ADVS","PARAMCD":"SYSBP","PARAM":"Systolic Blood Pressure (Supine) (mmHg)","PARAMN":1,"ADT":"2014-03-18","ADY":1,"AVISIT":"Baseline","AVISITN":0,"AVAL":136,"AVALU":"mmHg","BASE":136,"CHG":null,"PCHG":null,"ABLFL":"Y","TRT01A":"Xanomeline Low Dose","TRT01AN":2,"SAFFL":"Y","ITTFL":"Y","SITEID":"701","AGE":74,"SEX":"M","RACE":"WHITE","ARMCD":"Xan_Lo","TRTSDT":"2014-03-18","TRTEDT":"2014-03-31"},{"STUDYID":"CDISCPILOT01","USUBJID":"01-701-1033","DOMAIN":"ADVS","PARAMCD":"SYSBP","PARAM":"Systolic Blood Pressure (Supine) (mmHg)","PARAMN":1,"ADT":"2014-04-01","ADY":15,"AVISIT":"Week 2","AVISITN":2,"AVAL":138,"AVALU":"mmHg","BASE":136,"CHG":2,"PCHG":1.4706,"ABLFL":"Y","TRT01A":"Xanomeline Low Dose","TRT01AN":2,"SAFFL":"Y","ITTFL":"Y","SITEID":"701","AGE":74,"SEX":"M","RACE":"WHITE","ARMCD":"Xan_Lo","TRTSDT":"2014-03-18","TRTEDT":"2014-03-31"},{"STUDYID":"CDISCPILOT01","USUBJID":"01-701-1033","DOMAIN":"ADVS","PARAMCD":"SYSBP","PARAM":"Systolic Blood Pressure (Supine) (mmHg)","PARAMN":1,"ADT":"2014-04-14","ADY":28,"AVISIT":"Week 4","AVISITN":4,"AVAL":130,"AVALU":"mmHg","BASE":136,"CHG":-6,"PCHG":-4.4118,"ABLFL":"Y","TRT01A":"Xanomeline Low Dose","TRT01AN":2,"SAFFL":"Y","ITTFL":"Y","SITEID":"701","AGE":74,"SEX":"M","RACE":"WHITE","ARMCD":"Xan_Lo","TRTSDT":"2014-03-18","TRTEDT":"2014-03-31"},{"STUDYID":"CDISCPILOT01","USUBJID":"01-701-1033","DOMAIN":"ADVS","PARAMCD":"SYSBP","PARAM":"Systolic Blood Pressure (Supine) (mmHg)","PARAMN":1,"ADT":"2014-09-15","ADY":182,"AVISIT":"Week 24","AVISITN":24,"AVAL":130,"AVALU":"mmHg","BASE":136,"CHG":-6,"PCHG":-4.4118,"ABLFL":"Y","TRT01A":"Xanomeline Low Dose","TRT01AN":2,"SAFFL":"Y","ITTFL":"Y","SITEID":"701","AGE":74,"SEX":"M","RACE":"WHITE","ARMCD":"Xan_Lo","TRTSDT":"2014-03-18","TRTEDT":"2014-03-31"},{"STUDYID":"CDISCPILOT01","USUBJID":"01-701-1033","DOMAIN":"ADVS","PARAMCD":"VSSBPST","PARAM":"Systolic Blood Pressure (Standing) (mmHg)","PARAMN":2,"ADT":"2014-03-10","ADY":-8,"AVISIT":"Screening","AVISITN":-2,"AVAL":117,"AVALU":"mmHg","BASE":116,"CHG":null,"PCHG":null,"ABLFL":"Y","TRT01A":"Xanomeline Low Dose","TRT01AN":2,"SAFFL":"Y","ITTFL":"Y","SITEID":"701","AGE":74,"SEX":"M","RACE":"WHITE","ARMCD":"Xan_Lo","TRTSDT":"2014-03-18","TRTEDT":"2014-03-31"},{"STUDYID":"CDISCPILOT01","USUBJID":"01-701-1033","DOMAIN":"ADVS","PARAMCD":"VSSBPST","PARAM":"Systolic Blood Pressure (Standing) (mmHg)","PARAMN":2,"ADT":"2014-03-18","ADY":1,"AVISIT":"Baseline","AVISITN":0,"AVAL":116,"AVALU":"mmHg","BASE":116,"CHG":null,"PCHG":null,"ABLFL":"Y","TRT01A":"Xanomeline Low Dose","TRT01AN":2,"SAFFL":"Y","ITTFL":"Y","SITEID":"701","AGE":74,"SEX":"M","RACE":"WHITE","ARMCD":"Xan_Lo","TRTSDT":"2014-03-18","TRTEDT":"2014-03-31"},{"STUDYID":"CDISCPILOT01","USUBJID":"01-701-1033","DOMAIN":"ADVS","PARAMCD":"VSSBPST","PARAM":"Systolic Blood Pressure (Standing) (mmHg)","PARAMN":2,"ADT":"2014-04-01","ADY":15,"AVISIT":"Week 2","AVISITN":2,"AVAL":118,"AVALU":"mmHg","BASE":116,"CHG":2,"PCHG":1.7241,"ABLFL":"Y","TRT01A":"Xanomeline Low Dose","TRT01AN":2,"SAFFL":"Y","ITTFL":"Y","SITEID":"701","AGE":74,"SEX":"M","RACE":"WHITE","ARMCD":"Xan_Lo","TRTSDT":"2014-03-18","TRTEDT":"2014-03-31"},{"STUDYID":"CDISCPILOT01","USUBJID":"01-701-1033","DOMAIN":"ADVS","PARAMCD":"VSSBPST","PARAM":"Systolic Blood Pressure (Standing) (mmHg)","PARAMN":2,"ADT":"2014-04-14","ADY":28,"AVISIT":"Week 4","AVISITN":4,"AVAL":122,"AVALU":"mmHg","BASE":116,"CHG":6,"PCHG":5.1724,"ABLFL":"Y","TRT01A":"Xanomeline Low Dose","TRT01AN":2,"SAFFL":"Y","ITTFL":"Y","SITEID":"701","AGE":74,"SEX":"M","RACE":"WHITE","ARMCD":"Xan_Lo","TRTSDT":"2014-03-18","TRTEDT":"2014-03-31"},{"STUDYID":"CDISCPILOT01","USUBJID":"01-701-1033","DOMAIN":"ADVS","PARAMCD":"VSSBPST","PARAM":"Systolic Blood Pressure (Standing) (mmHg)","PARAMN":2,"ADT":"2014-09-15","ADY":182,"AVISIT":"Week 24","AVISITN":24,"AVAL":122,"AVALU":"mmHg","BASE":116,"CHG":6,"PCHG":5.1724,"ABLFL":"Y","TRT01A":"Xanomeline Low Dose","TRT01AN":2,"SAFFL":"Y","ITTFL":"Y","SITEID":"701","AGE":74,"SEX":"M","RACE":"WHITE","ARMCD":"Xan_Lo","TRTSDT":"2014-03-18","TRTEDT":"2014-03-31"},{"STUDYID":"CDISCPILOT01","USUBJID":"01-701-1033","DOMAIN":"ADVS","PARAMCD":"DIABP","PARAM":"Diastolic Blood Pressure (Supine) (mmHg)","PARAMN":3,"ADT":"2014-03-10","ADY":-8,"AVISIT":"Screening","AVISITN":-2,"AVAL":82,"AVALU":"mmHg","BASE":83,"CHG":null,"PCHG":null,"ABLFL":"Y","TRT01A":"Xanomeline Low Dose","TRT01AN":2,"SAFFL":"Y","ITTFL":"Y","SITEID":"701","AGE":74,"SEX":"M","RACE":"WHITE","ARMCD":"Xan_Lo","TRTSDT":"2014-03-18","TRTEDT":"2014-03-31"},{"STUDYID":"CDISCPILOT01","USUBJID":"01-701-1033","DOMAIN":"ADVS","PARAMCD":"DIABP","PARAM":"Diastolic Blood Pressure (Supine) (mmHg)","PARAMN":3,"ADT":"2014-03-18","ADY":1,"AVISIT":"Baseline","AVISITN":0,"AVAL":83,"AVALU":"mmHg","BASE":83,"CHG":null,"PCHG":null,"ABLFL":"Y","TRT01A":"Xanomeline Low Dose","TRT01AN":2,"SAFFL":"Y","ITTFL":"Y","SITEID":"701","AGE":74,"SEX":"M","RACE":"WHITE","ARMCD":"Xan_Lo","TRTSDT":"2014-03-18","TRTEDT":"2014-03-31"},{"STUDYID":"CDISCPILOT01","USUBJID":"01-701-1033","DOMAIN":"ADVS","PARAMCD":"DIABP","PARAM":"Diastolic Blood Pressure (Supine) (mmHg)","PARAMN":3,"ADT":"2014-04-01","ADY":15,"AVISIT":"Week 2","AVISITN":2,"AVAL":84,"AVALU":"mmHg","BASE":83,"CHG":1,"PCHG":1.2048,"ABLFL":"Y","TRT01A":"Xanomeline Low Dose","TRT01AN":2,"SAFFL":"Y","ITTFL":"Y","SITEID":"701","AGE":74,"SEX":"M","RACE":"WHITE","ARMCD":"Xan_Lo","TRTSDT":"2014-03-18","TRTEDT":"2014-03-31"},{"STUDYID":"CDISCPILOT01","USUBJID":"01-701-1033","DOMAIN":"ADVS","PARAMCD":"DIABP","PARAM":"Diastolic Blood Pressure (Supine) (mmHg)","PARAMN":3,"ADT":"2014-04-14","ADY":28,"AVISIT":"Week 4","AVISITN":4,"AVAL":76,"AVALU":"mmHg","BASE":83,"CHG":-7,"PCHG":-8.4337,"ABLFL":"Y","TRT01A":"Xanomeline Low Dose","TRT01AN":2,"SAFFL":"Y","ITTFL":"Y","SITEID":"701","AGE":74,"SEX":"M","RACE":"WHITE","ARMCD":"Xan_Lo","TRTSDT":"2014-03-18","TRTEDT":"2014-03-31"},{"STUDYID":"CDISCPILOT01","USUBJID":"01-701-1033","DOMAIN":"ADVS","PARAMCD":"DIABP","PARAM":"Diastolic Blood Pressure (Supine) (mmHg)","PARAMN":3,"ADT":"2014-09-15","ADY":182,"AVISIT":"Week 24","AVISITN":24,"AVAL":79,"AVALU":"mmHg","BASE":83,"CHG":-4,"PCHG":-4.8193,"ABLFL":"Y","TRT01A":"Xanomeline Low Dose","TRT01AN":2,"SAFFL":"Y","ITTFL":"Y","SITEID":"701","AGE":74,"SEX":"M","RACE":"WHITE","ARMCD":"Xan_Lo","TRTSDT":"2014-03-18","TRTEDT":"2014-03-31"},{"STUDYID":"CDISCPILOT01","USUBJID":"01-701-1033","DOMAIN":"ADVS","PARAMCD":"VSDBPST","PARAM":"Diastolic Blood Pressure (Standing) (mmHg)","PARAMN":4,"ADT":"2014-03-10","ADY":-8,"AVISIT":"Screening","AVISITN":-2,"AVAL":67,"AVALU":"mmHg","BASE":67,"CHG":null,"PCHG":null,"ABLFL":"Y","TRT01A":"Xanomeline Low Dose","TRT01AN":2,"SAFFL":"Y","ITTFL":"Y","SITEID":"701","AGE":74,"SEX":"M","RACE":"WHITE","ARMCD":"Xan_Lo","TRTSDT":"2014-03-18","TRTEDT":"2014-03-31"},{"STUDYID":"CDISCPILOT01","USUBJID":"01-701-1033","DOMAIN":"ADVS","PARAMCD":"VSDBPST","PARAM":"Diastolic Blood Pressure (Standing) (mmHg)","PARAMN":4,"ADT":"2014-03-18","ADY":1,"AVISIT":"Baseline","AVISITN":0,"AVAL":67,"AVALU":"mmHg","BASE":67,"CHG":null,"PCHG":null,"ABLFL":"Y","TRT01A":"Xanomeline Low Dose","TRT01AN":2,"SAFFL":"Y","ITTFL":"Y","SITEID":"701","AGE":74,"SEX":"M","RACE":"WHITE","ARMCD":"Xan_Lo","TRTSDT":"2014-03-18","TRTEDT":"2014-03-31"},{"STUDYID":"CDISCPILOT01","USUBJID":"01-701-1033","DOMAIN":"ADVS","PARAMCD":"VSDBPST","PARAM":"Diastolic Blood Pressure (Standing) (mmHg)","PARAMN":4,"ADT":"2014-04-01","ADY":15,"AVISIT":"Week 2","AVISITN":2,"AVAL":72,"AVALU":"mmHg","BASE":67,"CHG":5,"PCHG":7.4627,"ABLFL":"Y","TRT01A":"Xanomeline Low Dose","TRT01AN":2,"SAFFL":"Y","ITTFL":"Y","SITEID":"701","AGE":74,"SEX":"M","RACE":"WHITE","ARMCD":"Xan_Lo","TRTSDT":"2014-03-18","TRTEDT":"2014-03-31"},{"STUDYID":"CDISCPILOT01","USUBJID":"01-701-1033","DOMAIN":"ADVS","PARAMCD":"VSDBPST","PARAM":"Diastolic Blood Pressure (Standing) (mmHg)","PARAMN":4,"ADT":"2014-04-14","ADY":28,"AVISIT":"Week 4","AVISITN":4,"AVAL":67,"AVALU":"mmHg","BASE":67,"CHG":0,"PCHG":0,"ABLFL":"Y","TRT01A":"Xanomeline Low Dose","TRT01AN":2,"SAFFL":"Y","ITTFL":"Y","SITEID":"701","AGE":74,"SEX":"M","RACE":"WHITE","ARMCD":"Xan_Lo","TRTSDT":"2014-03-18","TRTEDT":"2014-03-31"},{"STUDYID":"CDISCPILOT01","USUBJID":"01-701-1033","DOMAIN":"ADVS","PARAMCD":"VSDBPST","PARAM":"Diastolic Blood Pressure (Standing) (mmHg)","PARAMN":4,"ADT":"2014-09-15","ADY":182,"AVISIT":"Week 24","AVISITN":24,"AVAL":71,"AVALU":"mmHg","BASE":67,"CHG":4,"PCHG":5.9701,"ABLFL":"Y","TRT01A":"Xanomeline Low Dose","TRT01AN":2,"SAFFL":"Y","ITTFL":"Y","SITEID":"701","AGE":74,"SEX":"M","RACE":"WHITE","ARMCD":"Xan_Lo","TRTSDT":"2014-03-18","TRTEDT":"2014-03-31"},{"STUDYID":"CDISCPILOT01","USUBJID":"01-701-1033","DOMAIN":"ADVS","PARAMCD":"PULSE","PARAM":"Pulse Rate (Supine) (beats/min)","PARAMN":5,"ADT":"2014-03-10","ADY":-8,"AVISIT":"Screening","AVISITN":-2,"AVAL":59,"AVALU":"BEATS/MIN","BASE":55,"CHG":null,"PCHG":null,"ABLFL":"Y","TRT01A":"Xanomeline Low Dose","TRT01AN":2,"SAFFL":"Y","ITTFL":"Y","SITEID":"701","AGE":74,"SEX":"M","RACE":"WHITE","ARMCD":"Xan_Lo","TRTSDT":"2014-03-18","TRTEDT":"2014-03-31"},{"STUDYID":"CDISCPILOT01","USUBJID":"01-701-1033","DOMAIN":"ADVS","PARAMCD":"PULSE","PARAM":"Pulse Rate (Supine) (beats/min)","PARAMN":5,"ADT":"2014-03-18","ADY":1,"AVISIT":"Baseline","AVISITN":0,"AVAL":55,"AVALU":"BEATS/MIN","BASE":55,"CHG":null,"PCHG":null,"ABLFL":"Y","TRT01A":"Xanomeline Low Dose","TRT01AN":2,"SAFFL":"Y","ITTFL":"Y","SITEID":"701","AGE":74,"SEX":"M","RACE":"WHITE","ARMCD":"Xan_Lo","TRTSDT":"2014-03-18","TRTEDT":"2014-03-31"},{"STUDYID":"CDISCPILOT01","USUBJID":"01-701-1033","DOMAIN":"ADVS","PARAMCD":"PULSE","PARAM":"Pulse Rate (Supine) (beats/min)","PARAMN":5,"ADT":"2014-04-01","ADY":15,"AVISIT":"Week 2","AVISITN":2,"AVAL":59,"AVALU":"BEATS/MIN","BASE":55,"CHG":4,"PCHG":7.2727,"ABLFL":"Y","TRT01A":"Xanomeline Low Dose","TRT01AN":2,"SAFFL":"Y","ITTFL":"Y","SITEID":"701","AGE":74,"SEX":"M","RACE":"WHITE","ARMCD":"Xan_Lo","TRTSDT":"2014-03-18","TRTEDT":"2014-03-31"},{"STUDYID":"CDISCPILOT01","USUBJID":"01-701-1033","DOMAIN":"ADVS","PARAMCD":"PULSE","PARAM":"Pulse Rate (Supine) (beats/min)","PARAMN":5,"ADT":"2014-04-14","ADY":28,"AVISIT":"Week 4","AVISITN":4,"AVAL":54,"AVALU":"BEATS/MIN","BASE":55,"CHG":-1,"PCHG":-1.8182,"ABLFL":"Y","TRT01A":"Xanomeline Low Dose","TRT01AN":2,"SAFFL":"Y","ITTFL":"Y","SITEID":"701","AGE":74,"SEX":"M","RACE":"WHITE","ARMCD":"Xan_Lo","TRTSDT":"2014-03-18","TRTEDT":"2014-03-31"},{"STUDYID":"CDISCPILOT01","USUBJID":"01-701-1033","DOMAIN":"ADVS","PARAMCD":"PULSE","PARAM":"Pulse Rate (Supine) (beats/min)","PARAMN":5,"ADT":"2014-09-15","ADY":182,"AVISIT":"Week 24","AVISITN":24,"AVAL":50,"AVALU":"BEATS/MIN","BASE":55,"CHG":-5,"PCHG":-9.0909,"ABLFL":"Y","TRT01A":"Xanomeline Low Dose","TRT01AN":2,"SAFFL":"Y","ITTFL":"Y","SITEID":"701","AGE":74,"SEX":"M","RACE":"WHITE","ARMCD":"Xan_Lo","TRTSDT":"2014-03-18","TRTEDT":"2014-03-31"},{"STUDYID":"CDISCPILOT01","USUBJID":"01-701-1033","DOMAIN":"ADVS","PARAMCD":"VSPULST","PARAM":"Pulse Rate (Standing) (beats/min)","PARAMN":6,"ADT":"2014-03-10","ADY":-8,"AVISIT":"Screening","AVISITN":-2,"AVAL":70,"AVALU":"BEATS/MIN","BASE":64,"CHG":null,"PCHG":null,"ABLFL":"Y","TRT01A":"Xanomeline Low Dose","TRT01AN":2,"SAFFL":"Y","ITTFL":"Y","SITEID":"701","AGE":74,"SEX":"M","RACE":"WHITE","ARMCD":"Xan_Lo","TRTSDT":"2014-03-18","TRTEDT":"2014-03-31"},{"STUDYID":"CDISCPILOT01","USUBJID":"01-701-1033","DOMAIN":"ADVS","PARAMCD":"VSPULST","PARAM":"Pulse Rate (Standing) (beats/min)","PARAMN":6,"ADT":"2014-03-18","ADY":1,"AVISIT":"Baseline","AVISITN":0,"AVAL":64,"AVALU":"BEATS/MIN","BASE":64,"CHG":null,"PCHG":null,"ABLFL":"Y","TRT01A":"Xanomeline Low Dose","TRT01AN":2,"SAFFL":"Y","ITTFL":"Y","SITEID":"701","AGE":74,"SEX":"M","RACE":"WHITE","ARMCD":"Xan_Lo","TRTSDT":"2014-03-18","TRTEDT":"2014-03-31"},{"STUDYID":"CDISCPILOT01","USUBJID":"01-701-1033","DOMAIN":"ADVS","PARAMCD":"VSPULST","PARAM":"Pulse Rate (Standing) (beats/min)","PARAMN":6,"ADT":"2014-04-01","ADY":15,"AVISIT":"Week 2","AVISITN":2,"AVAL":62,"AVALU":"BEATS/MIN","BASE":64,"CHG":-2,"PCHG":-3.125,"ABLFL":"Y","TRT01A":"Xanomeline Low Dose","TRT01AN":2,"SAFFL":"Y","ITTFL":"Y","SITEID":"701","AGE":74,"SEX":"M","RACE":"WHITE","ARMCD":"Xan_Lo","TRTSDT":"2014-03-18","TRTEDT":"2014-03-31"},{"STUDYID":"CDISCPILOT01","USUBJID":"01-701-1033","DOMAIN":"ADVS","PARAMCD":"VSPULST","PARAM":"Pulse Rate (Standing) (beats/min)","PARAMN":6,"ADT":"2014-04-14","ADY":28,"AVISIT":"Week 4","AVISITN":4,"AVAL":57,"AVALU":"BEATS/MIN","BASE":64,"CHG":-7,"PCHG":-10.9375,"ABLFL":"Y","TRT01A":"Xanomeline Low Dose","TRT01AN":2,"SAFFL":"Y","ITTFL":"Y","SITEID":"701","AGE":74,"SEX":"M","RACE":"WHITE","ARMCD":"Xan_Lo","TRTSDT":"2014-03-18","TRTEDT":"2014-03-31"},{"STUDYID":"CDISCPILOT01","USUBJID":"01-701-1033","DOMAIN":"ADVS","PARAMCD":"VSPULST","PARAM":"Pulse Rate (Standing) (beats/min)","PARAMN":6,"ADT":"2014-09-15","ADY":182,"AVISIT":"Week 24","AVISITN":24,"AVAL":55,"AVALU":"BEATS/MIN","BASE":64,"CHG":-9,"PCHG":-14.0625,"ABLFL":"Y","TRT01A":"Xanomeline Low Dose","TRT01AN":2,"SAFFL":"Y","ITTFL":"Y","SITEID":"701","AGE":74,"SEX":"M","RACE":"WHITE","ARMCD":"Xan_Lo","TRTSDT":"2014-03-18","TRTEDT":"2014-03-31"},{"STUDYID":"CDISCPILOT01","USUBJID":"01-701-1033","DOMAIN":"ADVS","PARAMCD":"WEIGHT","PARAM":"Weight (kg)","PARAMN":7,"ADT":"2014-03-10","ADY":-8,"AVISIT":"Screening","AVISITN":-2,"AVAL":88.45,"AVALU":"kg","BASE":88.45,"CHG":null,"PCHG":null,"ABLFL":"Y","TRT01A":"Xanomeline Low Dose","TRT01AN":2,"SAFFL":"Y","ITTFL":"Y","SITEID":"701","AGE":74,"SEX":"M","RACE":"WHITE","ARMCD":"Xan_Lo","TRTSDT":"2014-03-18","TRTEDT":"2014-03-31"},{"STUDYID":"CDISCPILOT01","USUBJID":"01-701-1033","DOMAIN":"ADVS","PARAMCD":"WEIGHT","PARAM":"Weight (kg)","PARAMN":7,"ADT":"2014-03-18","ADY":1,"AVISIT":"Baseline","AVISITN":0,"AVAL":88.45,"AVALU":"kg","BASE":88.45,"CHG":null,"PCHG":null,"ABLFL":"Y","TRT01A":"Xanomeline Low Dose","TRT01AN":2,"SAFFL":"Y","ITTFL":"Y","SITEID":"701","AGE":74,"SEX":"M","RACE":"WHITE","ARMCD":"Xan_Lo","TRTSDT":"2014-03-18","TRTEDT":"2014-03-31"},{"STUDYID":"CDISCPILOT01","USUBJID":"01-701-1033","DOMAIN":"ADVS","PARAMCD":"WEIGHT","PARAM":"Weight (kg)","PARAMN":7,"ADT":"2014-04-01","ADY":15,"AVISIT":"Week 2","AVISITN":2,"AVAL":89.36,"AVALU":"kg","BASE":88.45,"CHG":0.91,"PCHG":1.0288,"ABLFL":"Y","TRT01A":"Xanomeline Low Dose","TRT01AN":2,"SAFFL":"Y","ITTFL":"Y","SITEID":"701","AGE":74,"SEX":"M","RACE":"WHITE","ARMCD":"Xan_Lo","TRTSDT":"2014-03-18","TRTEDT":"2014-03-31"},{"STUDYID":"CDISCPILOT01","USUBJID":"01-701-1033","DOMAIN":"ADVS","PARAMCD":"WEIGHT","PARAM":"Weight (kg)","PARAMN":7,"ADT":"2014-04-14","ADY":28,"AVISIT":"Week 4","AVISITN":4,"AVAL":88.45,"AVALU":"kg","BASE":88.45,"CHG":0,"PCHG":0,"ABLFL":"Y","TRT01A":"Xanomeline Low Dose","TRT01AN":2,"SAFFL":"Y","ITTFL":"Y","SITEID":"701","AGE":74,"SEX":"M","RACE":"WHITE","ARMCD":"Xan_Lo","TRTSDT":"2014-03-18","TRTEDT":"2014-03-31"},{"STUDYID":"CDISCPILOT01","USUBJID":"01-701-1033","DOMAIN":"ADVS","PARAMCD":"HEIGHT","PARAM":"Height (cm)","PARAMN":8,"ADT":"2014-03-10","ADY":-8,"AVISIT":"Screening","AVISITN":-2,"AVAL":175.26,"AVALU":"cm","BASE":175.26,"CHG":null,"PCHG":null,"ABLFL":"Y","TRT01A":"Xanomeline Low Dose","TRT01AN":2,"SAFFL":"Y","ITTFL":"Y","SITEID":"701","AGE":74,"SEX":"M","RACE":"WHITE","ARMCD":"Xan_Lo","TRTSDT":"2014-03-18","TRTEDT":"2014-03-31"},{"STUDYID":"CDISCPILOT01","USUBJID":"01-701-1033","DOMAIN":"ADVS","PARAMCD":"TEMP","PARAM":"Temperature (C)","PARAMN":9,"ADT":"2014-03-10","ADY":-8,"AVISIT":"Screening","AVISITN":-2,"AVAL":37.06,"AVALU":"C","BASE":37.11,"CHG":null,"PCHG":null,"ABLFL":"Y","TRT01A":"Xanomeline Low Dose","TRT01AN":2,"SAFFL":"Y","ITTFL":"Y","SITEID":"701","AGE":74,"SEX":"M","RACE":"WHITE","ARMCD":"Xan_Lo","TRTSDT":"2014-03-18","TRTEDT":"2014-03-31"},{"STUDYID":"CDISCPILOT01","USUBJID":"01-701-1033","DOMAIN":"ADVS","PARAMCD":"TEMP","PARAM":"Temperature (C)","PARAMN":9,"ADT":"2014-03-18","ADY":1,"AVISIT":"Baseline","AVISITN":0,"AVAL":37.11,"AVALU":"C","BASE":37.11,"CHG":null,"PCHG":null,"ABLFL":"Y","TRT01A":"Xanomeline Low Dose","TRT01AN":2,"SAFFL":"Y","ITTFL":"Y","SITEID":"701","AGE":74,"SEX":"M","RACE":"WHITE","ARMCD":"Xan_Lo","TRTSDT":"2014-03-18","TRTEDT":"2014-03-31"},{"STUDYID":"CDISCPILOT01","USUBJID":"01-701-1033","DOMAIN":"ADVS","PARAMCD":"TEMP","PARAM":"Temperature (C)","PARAMN":9,"ADT":"2014-04-01","ADY":15,"AVISIT":"Week 2","AVISITN":2,"AVAL":36.72,"AVALU":"C","BASE":37.11,"CHG":-0.39,"PCHG":-1.0509,"ABLFL":"Y","TRT01A":"Xanomeline Low Dose","TRT01AN":2,"SAFFL":"Y","ITTFL":"Y","SITEID":"701","AGE":74,"SEX":"M","RACE":"WHITE","ARMCD":"Xan_Lo","TRTSDT":"2014-03-18","TRTEDT":"2014-03-31"},{"STUDYID":"CDISCPILOT01","USUBJID":"01-701-1033","DOMAIN":"ADVS","PARAMCD":"TEMP","PARAM":"Temperature (C)","PARAMN":9,"ADT":"2014-04-14","ADY":28,"AVISIT":"Week 4","AVISITN":4,"AVAL":36.72,"AVALU":"C","BASE":37.11,"CHG":-0.39,"PCHG":-1.0509,"ABLFL":"Y","TRT01A":"Xanomeline Low Dose","TRT01AN":2,"SAFFL":"Y","ITTFL":"Y","SITEID":"701","AGE":74,"SEX":"M","RACE":"WHITE","ARMCD":"Xan_Lo","TRTSDT":"2014-03-18","TRTEDT":"2014-03-31"},{"STUDYID":"CDISCPILOT01","USUBJID":"01-701-1033","DOMAIN":"ADVS","PARAMCD":"TEMP","PARAM":"Temperature (C)","PARAMN":9,"ADT":"2014-09-15","ADY":182,"AVISIT":"Week 24","AVISITN":24,"AVAL":36.72,"AVALU":"C","BASE":37.11,"CHG":-0.39,"PCHG":-1.0509,"ABLFL":"Y","TRT01A":"Xanomeline Low Dose","TRT01AN":2,"SAFFL":"Y","ITTFL":"Y","SITEID":"701","AGE":74,"SEX":"M","RACE":"WHITE","ARMCD":"Xan_Lo","TRTSDT":"2014-03-18","TRTEDT":"2014-03-31"},{"STUDYID":"CDISCPILOT01","USUBJID":"01-701-1034","DOMAIN":"ADVS","PARAMCD":"SYSBP","PARAM":"Systolic Blood Pressure (Supine) (mmHg)","PARAMN":1,"ADT":"2014-06-24","ADY":-7,"AVISIT":"Screening","AVISITN":-2,"AVAL":160,"AVALU":"mmHg","BASE":163,"CHG":null,"PCHG":null,"ABLFL":"Y","TRT01A":"Xanomeline High Dose","TRT01AN":3,"SAFFL":"Y","ITTFL":"Y","SITEID":"701","AGE":77,"SEX":"F","RACE":"WHITE","ARMCD":"Xan_Hi","TRTSDT":"2014-07-01","TRTEDT":"2014-12-30"},{"STUDYID":"CDISCPILOT01","USUBJID":"01-701-1034","DOMAIN":"ADVS","PARAMCD":"SYSBP","PARAM":"Systolic Blood Pressure (Supine) (mmHg)","PARAMN":1,"ADT":"2014-07-01","ADY":1,"AVISIT":"Baseline","AVISITN":0,"AVAL":163,"AVALU":"mmHg","BASE":163,"CHG":null,"PCHG":null,"ABLFL":"Y","TRT01A":"Xanomeline High Dose","TRT01AN":3,"SAFFL":"Y","ITTFL":"Y","SITEID":"701","AGE":77,"SEX":"F","RACE":"WHITE","ARMCD":"Xan_Hi","TRTSDT":"2014-07-01","TRTEDT":"2014-12-30"},{"STUDYID":"CDISCPILOT01","USUBJID":"01-701-1034","DOMAIN":"ADVS","PARAMCD":"SYSBP","PARAM":"Systolic Blood Pressure (Supine) (mmHg)","PARAMN":1,"ADT":"2014-07-15","ADY":15,"AVISIT":"Week 2","AVISITN":2,"AVAL":183,"AVALU":"mmHg","BASE":163,"CHG":20,"PCHG":12.2699,"ABLFL":"Y","TRT01A":"Xanomeline High Dose","TRT01AN":3,"SAFFL":"Y","ITTFL":"Y","SITEID":"701","AGE":77,"SEX":"F","RACE":"WHITE","ARMCD":"Xan_Hi","TRTSDT":"2014-07-01","TRTEDT":"2014-12-30"},{"STUDYID":"CDISCPILOT01","USUBJID":"01-701-1034","DOMAIN":"ADVS","PARAMCD":"SYSBP","PARAM":"Systolic Blood Pressure (Supine) (mmHg)","PARAMN":1,"ADT":"2014-07-29","ADY":29,"AVISIT":"Week 4","AVISITN":4,"AVAL":165,"AVALU":"mmHg","BASE":163,"CHG":2,"PCHG":1.227,"ABLFL":"Y","TRT01A":"Xanomeline High Dose","TRT01AN":3,"SAFFL":"Y","ITTFL":"Y","SITEID":"701","AGE":77,"SEX":"F","RACE":"WHITE","ARMCD":"Xan_Hi","TRTSDT":"2014-07-01","TRTEDT":"2014-12-30"},{"STUDYID":"CDISCPILOT01","USUBJID":"01-701-1034","DOMAIN":"ADVS","PARAMCD":"SYSBP","PARAM":"Systolic Blood Pressure (Supine) (mmHg)","PARAMN":1,"ADT":"2014-08-11","ADY":42,"AVISIT":"Week 6","AVISITN":6,"AVAL":145,"AVALU":"mmHg","BASE":163,"CHG":-18,"PCHG":-11.0429,"ABLFL":"Y","TRT01A":"Xanomeline High Dose","TRT01AN":3,"SAFFL":"Y","ITTFL":"Y","SITEID":"701","AGE":77,"SEX":"F","RACE":"WHITE","ARMCD":"Xan_Hi","TRTSDT":"2014-07-01","TRTEDT":"2014-12-30"},{"STUDYID":"CDISCPILOT01","USUBJID":"01-701-1034","DOMAIN":"ADVS","PARAMCD":"SYSBP","PARAM":"Systolic Blood Pressure (Supine) (mmHg)","PARAMN":1,"ADT":"2014-08-26","ADY":57,"AVISIT":"Week 8","AVISITN":8,"AVAL":188,"AVALU":"mmHg","BASE":163,"CHG":25,"PCHG":15.3374,"ABLFL":"Y","TRT01A":"Xanomeline High Dose","TRT01AN":3,"SAFFL":"Y","ITTFL":"Y","SITEID":"701","AGE":77,"SEX":"F","RACE":"WHITE","ARMCD":"Xan_Hi","TRTSDT":"2014-07-01","TRTEDT":"2014-12-30"},{"STUDYID":"CDISCPILOT01","USUBJID":"01-701-1034","DOMAIN":"ADVS","PARAMCD":"SYSBP","PARAM":"Systolic Blood Pressure (Supine) (mmHg)","PARAMN":1,"ADT":"2014-09-25","ADY":87,"AVISIT":"Week 12","AVISITN":12,"AVAL":145,"AVALU":"mmHg","BASE":163,"CHG":-18,"PCHG":-11.0429,"ABLFL":"Y","TRT01A":"Xanomeline High Dose","TRT01AN":3,"SAFFL":"Y","ITTFL":"Y","SITEID":"701","AGE":77,"SEX":"F","RACE":"WHITE","ARMCD":"Xan_Hi","TRTSDT":"2014-07-01","TRTEDT":"2014-12-30"},{"STUDYID":"CDISCPILOT01","USUBJID":"01-701-1034","DOMAIN":"ADVS","PARAMCD":"SYSBP","PARAM":"Systolic Blood Pressure (Supine) (mmHg)","PARAMN":1,"ADT":"2014-10-21","ADY":113,"AVISIT":"Week 16","AVISITN":16,"AVAL":154,"AVALU":"mmHg","BASE":163,"CHG":-9,"PCHG":-5.5215,"ABLFL":"Y","TRT01A":"Xanomeline High Dose","TRT01AN":3,"SAFFL":"Y","ITTFL":"Y","SITEID":"701","AGE":77,"SEX":"F","RACE":"WHITE","ARMCD":"Xan_Hi","TRTSDT":"2014-07-01","TRTEDT":"2014-12-30"},{"STUDYID":"CDISCPILOT01","USUBJID":"01-701-1034","DOMAIN":"ADVS","PARAMCD":"SYSBP","PARAM":"Systolic Blood Pressure (Supine) (mmHg)","PARAMN":1,"ADT":"2014-11-18","ADY":141,"AVISIT":"Week 20","AVISITN":20,"AVAL":167,"AVALU":"mmHg","BASE":163,"CHG":4,"PCHG":2.454,"ABLFL":"Y","TRT01A":"Xanomeline High Dose","TRT01AN":3,"SAFFL":"Y","ITTFL":"Y","SITEID":"701","AGE":77,"SEX":"F","RACE":"WHITE","ARMCD":"Xan_Hi","TRTSDT":"2014-07-01","TRTEDT":"2014-12-30"},{"STUDYID":"CDISCPILOT01","USUBJID":"01-701-1034","DOMAIN":"ADVS","PARAMCD":"SYSBP","PARAM":"Systolic Blood Pressure (Supine) (mmHg)","PARAMN":1,"ADT":"2014-12-17","ADY":170,"AVISIT":"Week 24","AVISITN":24,"AVAL":178,"AVALU":"mmHg","BASE":163,"CHG":15,"PCHG":9.2025,"ABLFL":"Y","TRT01A":"Xanomeline High Dose","TRT01AN":3,"SAFFL":"Y","ITTFL":"Y","SITEID":"701","AGE":77,"SEX":"F","RACE":"WHITE","ARMCD":"Xan_Hi","TRTSDT":"2014-07-01","TRTEDT":"2014-12-30"},{"STUDYID":"CDISCPILOT01","USUBJID":"01-701-1034","DOMAIN":"ADVS","PARAMCD":"SYSBP","PARAM":"Systolic Blood Pressure (Supine) (mmHg)","PARAMN":1,"ADT":"2014-12-30","ADY":183,"AVISIT":"Week 26","AVISITN":26,"AVAL":154,"AVALU":"mmHg","BASE":163,"CHG":-9,"PCHG":-5.5215,"ABLFL":"Y","TRT01A":"Xanomeline High Dose","TRT01AN":3,"SAFFL":"Y","ITTFL":"Y","SITEID":"701","AGE":77,"SEX":"F","RACE":"WHITE","ARMCD":"Xan_Hi","TRTSDT":"2014-07-01","TRTEDT":"2014-12-30"},{"STUDYID":"CDISCPILOT01","USUBJID":"01-701-1034","DOMAIN":"ADVS","PARAMCD":"VSSBPST","PARAM":"Systolic Blood Pressure (Standing) (mmHg)","PARAMN":2,"ADT":"2014-06-24","ADY":-7,"AVISIT":"Screening","AVISITN":-2,"AVAL":183,"AVALU":"mmHg","BASE":177,"CHG":null,"PCHG":null,"ABLFL":"Y","TRT01A":"Xanomeline High Dose","TRT01AN":3,"SAFFL":"Y","ITTFL":"Y","SITEID":"701","AGE":77,"SEX":"F","RACE":"WHITE","ARMCD":"Xan_Hi","TRTSDT":"2014-07-01","TRTEDT":"2014-12-30"},{"STUDYID":"CDISCPILOT01","USUBJID":"01-701-1034","DOMAIN":"ADVS","PARAMCD":"VSSBPST","PARAM":"Systolic Blood Pressure (Standing) (mmHg)","PARAMN":2,"ADT":"2014-07-01","ADY":1,"AVISIT":"Baseline","AVISITN":0,"AVAL":177,"AVALU":"mmHg","BASE":177,"CHG":null,"PCHG":null,"ABLFL":"Y","TRT01A":"Xanomeline High Dose","TRT01AN":3,"SAFFL":"Y","ITTFL":"Y","SITEID":"701","AGE":77,"SEX":"F","RACE":"WHITE","ARMCD":"Xan_Hi","TRTSDT":"2014-07-01","TRTEDT":"2014-12-30"},{"STUDYID":"CDISCPILOT01","USUBJID":"01-701-1034","DOMAIN":"ADVS","PARAMCD":"VSSBPST","PARAM":"Systolic Blood Pressure (Standing) (mmHg)","PARAMN":2,"ADT":"2014-07-15","ADY":15,"AVISIT":"Week 2","AVISITN":2,"AVAL":191,"AVALU":"mmHg","BASE":177,"CHG":14,"PCHG":7.9096,"ABLFL":"Y","TRT01A":"Xanomeline High Dose","TRT01AN":3,"SAFFL":"Y","ITTFL":"Y","SITEID":"701","AGE":77,"SEX":"F","RACE":"WHITE","ARMCD":"Xan_Hi","TRTSDT":"2014-07-01","TRTEDT":"2014-12-30"},{"STUDYID":"CDISCPILOT01","USUBJID":"01-701-1034","DOMAIN":"ADVS","PARAMCD":"VSSBPST","PARAM":"Systolic Blood Pressure (Standing) (mmHg)","PARAMN":2,"ADT":"2014-07-29","ADY":29,"AVISIT":"Week 4","AVISITN":4,"AVAL":170,"AVALU":"mmHg","BASE":177,"CHG":-7,"PCHG":-3.9548,"ABLFL":"Y","TRT01A":"Xanomeline High Dose","TRT01AN":3,"SAFFL":"Y","ITTFL":"Y","SITEID":"701","AGE":77,"SEX":"F","RACE":"WHITE","ARMCD":"Xan_Hi","TRTSDT":"2014-07-01","TRTEDT":"2014-12-30"},{"STUDYID":"CDISCPILOT01","USUBJID":"01-701-1034","DOMAIN":"ADVS","PARAMCD":"VSSBPST","PARAM":"Systolic Blood Pressure (Standing) (mmHg)","PARAMN":2,"ADT":"2014-08-11","ADY":42,"AVISIT":"Week 6","AVISITN":6,"AVAL":174,"AVALU":"mmHg","BASE":177,"CHG":-3,"PCHG":-1.6949,"ABLFL":"Y","TRT01A":"Xanomeline High Dose","TRT01AN":3,"SAFFL":"Y","ITTFL":"Y","SITEID":"701","AGE":77,"SEX":"F","RACE":"WHITE","ARMCD":"Xan_Hi","TRTSDT":"2014-07-01","TRTEDT":"2014-12-30"},{"STUDYID":"CDISCPILOT01","USUBJID":"01-701-1034","DOMAIN":"ADVS","PARAMCD":"VSSBPST","PARAM":"Systolic Blood Pressure (Standing) (mmHg)","PARAMN":2,"ADT":"2014-08-26","ADY":57,"AVISIT":"Week 8","AVISITN":8,"AVAL":197,"AVALU":"mmHg","BASE":177,"CHG":20,"PCHG":11.2994,"ABLFL":"Y","TRT01A":"Xanomeline High Dose","TRT01AN":3,"SAFFL":"Y","ITTFL":"Y","SITEID":"701","AGE":77,"SEX":"F","RACE":"WHITE","ARMCD":"Xan_Hi","TRTSDT":"2014-07-01","TRTEDT":"2014-12-30"},{"STUDYID":"CDISCPILOT01","USUBJID":"01-701-1034","DOMAIN":"ADVS","PARAMCD":"VSSBPST","PARAM":"Systolic Blood Pressure (Standing) (mmHg)","PARAMN":2,"ADT":"2014-09-25","ADY":87,"AVISIT":"Week 12","AVISITN":12,"AVAL":150,"AVALU":"mmHg","BASE":177,"CHG":-27,"PCHG":-15.2542,"ABLFL":"Y","TRT01A":"Xanomeline High Dose","TRT01AN":3,"SAFFL":"Y","ITTFL":"Y","SITEID":"701","AGE":77,"SEX":"F","RACE":"WHITE","ARMCD":"Xan_Hi","TRTSDT":"2014-07-01","TRTEDT":"2014-12-30"},{"STUDYID":"CDISCPILOT01","USUBJID":"01-701-1034","DOMAIN":"ADVS","PARAMCD":"VSSBPST","PARAM":"Systolic Blood Pressure (Standing) (mmHg)","PARAMN":2,"ADT":"2014-10-21","ADY":113,"AVISIT":"Week 16","AVISITN":16,"AVAL":183,"AVALU":"mmHg","BASE":177,"CHG":6,"PCHG":3.3898,"ABLFL":"Y","TRT01A":"Xanomeline High Dose","TRT01AN":3,"SAFFL":"Y","ITTFL":"Y","SITEID":"701","AGE":77,"SEX":"F","RACE":"WHITE","ARMCD":"Xan_Hi","TRTSDT":"2014-07-01","TRTEDT":"2014-12-30"},{"STUDYID":"CDISCPILOT01","USUBJID":"01-701-1034","DOMAIN":"ADVS","PARAMCD":"VSSBPST","PARAM":"Systolic Blood Pressure (Standing) (mmHg)","PARAMN":2,"ADT":"2014-11-18","ADY":141,"AVISIT":"Week 20","AVISITN":20,"AVAL":181,"AVALU":"mmHg","BASE":177,"CHG":4,"PCHG":2.2599,"ABLFL":"Y","TRT01A":"Xanomeline High Dose","TRT01AN":3,"SAFFL":"Y","ITTFL":"Y","SITEID":"701","AGE":77,"SEX":"F","RACE":"WHITE","ARMCD":"Xan_Hi","TRTSDT":"2014-07-01","TRTEDT":"2014-12-30"},{"STUDYID":"CDISCPILOT01","USUBJID":"01-701-1034","DOMAIN":"ADVS","PARAMCD":"VSSBPST","PARAM":"Systolic Blood Pressure (Standing) (mmHg)","PARAMN":2,"ADT":"2014-12-17","ADY":170,"AVISIT":"Week 24","AVISITN":24,"AVAL":198,"AVALU":"mmHg","BASE":177,"CHG":21,"PCHG":11.8644,"ABLFL":"Y","TRT01A":"Xanomeline High Dose","TRT01AN":3,"SAFFL":"Y","ITTFL":"Y","SITEID":"701","AGE":77,"SEX":"F","RACE":"WHITE","ARMCD":"Xan_Hi","TRTSDT":"2014-07-01","TRTEDT":"2014-12-30"},{"STUDYID":"CDISCPILOT01","USUBJID":"01-701-1034","DOMAIN":"ADVS","PARAMCD":"VSSBPST","PARAM":"Systolic Blood Pressure (Standing) (mmHg)","PARAMN":2,"ADT":"2014-12-30","ADY":183,"AVISIT":"Week 26","AVISITN":26,"AVAL":150,"AVALU":"mmHg","BASE":177,"CHG":-27,"PCHG":-15.2542,"ABLFL":"Y","TRT01A":"Xanomeline High Dose","TRT01AN":3,"SAFFL":"Y","ITTFL":"Y","SITEID":"701","AGE":77,"SEX":"F","RACE":"WHITE","ARMCD":"Xan_Hi","TRTSDT":"2014-07-01","TRTEDT":"2014-12-30"},{"STUDYID":"CDISCPILOT01","USUBJID":"01-701-1034","DOMAIN":"ADVS","PARAMCD":"DIABP","PARAM":"Diastolic Blood Pressure (Supine) (mmHg)","PARAMN":3,"ADT":"2014-06-24","ADY":-7,"AVISIT":"Screening","AVISITN":-2,"AVAL":58,"AVALU":"mmHg","BASE":60,"CHG":null,"PCHG":null,"ABLFL":"Y","TRT01A":"Xanomeline High Dose","TRT01AN":3,"SAFFL":"Y","ITTFL":"Y","SITEID":"701","AGE":77,"SEX":"F","RACE":"WHITE","ARMCD":"Xan_Hi","TRTSDT":"2014-07-01","TRTEDT":"2014-12-30"},{"STUDYID":"CDISCPILOT01","USUBJID":"01-701-1034","DOMAIN":"ADVS","PARAMCD":"DIABP","PARAM":"Diastolic Blood Pressure (Supine) (mmHg)","PARAMN":3,"ADT":"2014-07-01","ADY":1,"AVISIT":"Baseline","AVISITN":0,"AVAL":60,"AVALU":"mmHg","BASE":60,"CHG":null,"PCHG":null,"ABLFL":"Y","TRT01A":"Xanomeline High Dose","TRT01AN":3,"SAFFL":"Y","ITTFL":"Y","SITEID":"701","AGE":77,"SEX":"F","RACE":"WHITE","ARMCD":"Xan_Hi","TRTSDT":"2014-07-01","TRTEDT":"2014-12-30"},{"STUDYID":"CDISCPILOT01","USUBJID":"01-701-1034","DOMAIN":"ADVS","PARAMCD":"DIABP","PARAM":"Diastolic Blood Pressure (Supine) (mmHg)","PARAMN":3,"ADT":"2014-07-15","ADY":15,"AVISIT":"Week 2","AVISITN":2,"AVAL":81,"AVALU":"mmHg","BASE":60,"CHG":21,"PCHG":35,"ABLFL":"Y","TRT01A":"Xanomeline High Dose","TRT01AN":3,"SAFFL":"Y","ITTFL":"Y","SITEID":"701","AGE":77,"SEX":"F","RACE":"WHITE","ARMCD":"Xan_Hi","TRTSDT":"2014-07-01","TRTEDT":"2014-12-30"},{"STUDYID":"CDISCPILOT01","USUBJID":"01-701-1034","DOMAIN":"ADVS","PARAMCD":"DIABP","PARAM":"Diastolic Blood Pressure (Supine) (mmHg)","PARAMN":3,"ADT":"2014-07-29","ADY":29,"AVISIT":"Week 4","AVISITN":4,"AVAL":71,"AVALU":"mmHg","BASE":60,"CHG":11,"PCHG":18.3333,"ABLFL":"Y","TRT01A":"Xanomeline High Dose","TRT01AN":3,"SAFFL":"Y","ITTFL":"Y","SITEID":"701","AGE":77,"SEX":"F","RACE":"WHITE","ARMCD":"Xan_Hi","TRTSDT":"2014-07-01","TRTEDT":"2014-12-30"},{"STUDYID":"CDISCPILOT01","USUBJID":"01-701-1034","DOMAIN":"ADVS","PARAMCD":"DIABP","PARAM":"Diastolic Blood Pressure (Supine) (mmHg)","PARAMN":3,"ADT":"2014-08-11","ADY":42,"AVISIT":"Week 6","AVISITN":6,"AVAL":57,"AVALU":"mmHg","BASE":60,"CHG":-3,"PCHG":-5,"ABLFL":"Y","TRT01A":"Xanomeline High Dose","TRT01AN":3,"SAFFL":"Y","ITTFL":"Y","SITEID":"701","AGE":77,"SEX":"F","RACE":"WHITE","ARMCD":"Xan_Hi","TRTSDT":"2014-07-01","TRTEDT":"2014-12-30"},{"STUDYID":"CDISCPILOT01","USUBJID":"01-701-1034","DOMAIN":"ADVS","PARAMCD":"DIABP","PARAM":"Diastolic Blood Pressure (Supine) (mmHg)","PARAMN":3,"ADT":"2014-08-26","ADY":57,"AVISIT":"Week 8","AVISITN":8,"AVAL":73,"AVALU":"mmHg","BASE":60,"CHG":13,"PCHG":21.6667,"ABLFL":"Y","TRT01A":"Xanomeline High Dose","TRT01AN":3,"SAFFL":"Y","ITTFL":"Y","SITEID":"701","AGE":77,"SEX":"F","RACE":"WHITE","ARMCD":"Xan_Hi","TRTSDT":"2014-07-01","TRTEDT":"2014-12-30"},{"STUDYID":"CDISCPILOT01","USUBJID":"01-701-1034","DOMAIN":"ADVS","PARAMCD":"DIABP","PARAM":"Diastolic Blood Pressure (Supine) (mmHg)","PARAMN":3,"ADT":"2014-09-25","ADY":87,"AVISIT":"Week 12","AVISITN":12,"AVAL":71,"AVALU":"mmHg","BASE":60,"CHG":11,"PCHG":18.3333,"ABLFL":"Y","TRT01A":"Xanomeline High Dose","TRT01AN":3,"SAFFL":"Y","ITTFL":"Y","SITEID":"701","AGE":77,"SEX":"F","RACE":"WHITE","ARMCD":"Xan_Hi","TRTSDT":"2014-07-01","TRTEDT":"2014-12-30"},{"STUDYID":"CDISCPILOT01","USUBJID":"01-701-1034","DOMAIN":"ADVS","PARAMCD":"DIABP","PARAM":"Diastolic Blood Pressure (Supine) (mmHg)","PARAMN":3,"ADT":"2014-10-21","ADY":113,"AVISIT":"Week 16","AVISITN":16,"AVAL":87,"AVALU":"mmHg","BASE":60,"CHG":27,"PCHG":45,"ABLFL":"Y","TRT01A":"Xanomeline High Dose","TRT01AN":3,"SAFFL":"Y","ITTFL":"Y","SITEID":"701","AGE":77,"SEX":"F","RACE":"WHITE","ARMCD":"Xan_Hi","TRTSDT":"2014-07-01","TRTEDT":"2014-12-30"},{"STUDYID":"CDISCPILOT01","USUBJID":"01-701-1034","DOMAIN":"ADVS","PARAMCD":"DIABP","PARAM":"Diastolic Blood Pressure (Supine) (mmHg)","PARAMN":3,"ADT":"2014-11-18","ADY":141,"AVISIT":"Week 20","AVISITN":20,"AVAL":78,"AVALU":"mmHg","BASE":60,"CHG":18,"PCHG":30,"ABLFL":"Y","TRT01A":"Xanomeline High Dose","TRT01AN":3,"SAFFL":"Y","ITTFL":"Y","SITEID":"701","AGE":77,"SEX":"F","RACE":"WHITE","ARMCD":"Xan_Hi","TRTSDT":"2014-07-01","TRTEDT":"2014-12-30"},{"STUDYID":"CDISCPILOT01","USUBJID":"01-701-1034","DOMAIN":"ADVS","PARAMCD":"DIABP","PARAM":"Diastolic Blood Pressure (Supine) (mmHg)","PARAMN":3,"ADT":"2014-12-17","ADY":170,"AVISIT":"Week 24","AVISITN":24,"AVAL":81,"AVALU":"mmHg","BASE":60,"CHG":21,"PCHG":35,"ABLFL":"Y","TRT01A":"Xanomeline High Dose","TRT01AN":3,"SAFFL":"Y","ITTFL":"Y","SITEID":"701","AGE":77,"SEX":"F","RACE":"WHITE","ARMCD":"Xan_Hi","TRTSDT":"2014-07-01","TRTEDT":"2014-12-30"},{"STUDYID":"CDISCPILOT01","USUBJID":"01-701-1034","DOMAIN":"ADVS","PARAMCD":"DIABP","PARAM":"Diastolic Blood Pressure (Supine) (mmHg)","PARAMN":3,"ADT":"2014-12-30","ADY":183,"AVISIT":"Week 26","AVISITN":26,"AVAL":67,"AVALU":"mmHg","BASE":60,"CHG":7,"PCHG":11.6667,"ABLFL":"Y","TRT01A":"Xanomeline High Dose","TRT01AN":3,"SAFFL":"Y","ITTFL":"Y","SITEID":"701","AGE":77,"SEX":"F","RACE":"WHITE","ARMCD":"Xan_Hi","TRTSDT":"2014-07-01","TRTEDT":"2014-12-30"},{"STUDYID":"CDISCPILOT01","USUBJID":"01-701-1034","DOMAIN":"ADVS","PARAMCD":"VSDBPST","PARAM":"Diastolic Blood Pressure (Standing) (mmHg)","PARAMN":4,"ADT":"2014-06-24","ADY":-7,"AVISIT":"Screening","AVISITN":-2,"AVAL":73,"AVALU":"mmHg","BASE":75,"CHG":null,"PCHG":null,"ABLFL":"Y","TRT01A":"Xanomeline High Dose","TRT01AN":3,"SAFFL":"Y","ITTFL":"Y","SITEID":"701","AGE":77,"SEX":"F","RACE":"WHITE","ARMCD":"Xan_Hi","TRTSDT":"2014-07-01","TRTEDT":"2014-12-30"},{"STUDYID":"CDISCPILOT01","USUBJID":"01-701-1034","DOMAIN":"ADVS","PARAMCD":"VSDBPST","PARAM":"Diastolic Blood Pressure (Standing) (mmHg)","PARAMN":4,"ADT":"2014-07-01","ADY":1,"AVISIT":"Baseline","AVISITN":0,"AVAL":75,"AVALU":"mmHg","BASE":75,"CHG":null,"PCHG":null,"ABLFL":"Y","TRT01A":"Xanomeline High Dose","TRT01AN":3,"SAFFL":"Y","ITTFL":"Y","SITEID":"701","AGE":77,"SEX":"F","RACE":"WHITE","ARMCD":"Xan_Hi","TRTSDT":"2014-07-01","TRTEDT":"2014-12-30"},{"STUDYID":"CDISCPILOT01","USUBJID":"01-701-1034","DOMAIN":"ADVS","PARAMCD":"VSDBPST","PARAM":"Diastolic Blood Pressure (Standing) (mmHg)","PARAMN":4,"ADT":"2014-07-15","ADY":15,"AVISIT":"Week 2","AVISITN":2,"AVAL":101,"AVALU":"mmHg","BASE":75,"CHG":26,"PCHG":34.6667,"ABLFL":"Y","TRT01A":"Xanomeline High Dose","TRT01AN":3,"SAFFL":"Y","ITTFL":"Y","SITEID":"701","AGE":77,"SEX":"F","RACE":"WHITE","ARMCD":"Xan_Hi","TRTSDT":"2014-07-01","TRTEDT":"2014-12-30"},{"STUDYID":"CDISCPILOT01","USUBJID":"01-701-1034","DOMAIN":"ADVS","PARAMCD":"VSDBPST","PARAM":"Diastolic Blood Pressure (Standing) (mmHg)","PARAMN":4,"ADT":"2014-07-29","ADY":29,"AVISIT":"Week 4","AVISITN":4,"AVAL":69,"AVALU":"mmHg","BASE":75,"CHG":-6,"PCHG":-8,"ABLFL":"Y","TRT01A":"Xanomeline High Dose","TRT01AN":3,"SAFFL":"Y","ITTFL":"Y","SITEID":"701","AGE":77,"SEX":"F","RACE":"WHITE","ARMCD":"Xan_Hi","TRTSDT":"2014-07-01","TRTEDT":"2014-12-30"},{"STUDYID":"CDISCPILOT01","USUBJID":"01-701-1034","DOMAIN":"ADVS","PARAMCD":"VSDBPST","PARAM":"Diastolic Blood Pressure (Standing) (mmHg)","PARAMN":4,"ADT":"2014-08-11","ADY":42,"AVISIT":"Week 6","AVISITN":6,"AVAL":76,"AVALU":"mmHg","BASE":75,"CHG":1,"PCHG":1.3333,"ABLFL":"Y","TRT01A":"Xanomeline High Dose","TRT01AN":3,"SAFFL":"Y","ITTFL":"Y","SITEID":"701","AGE":77,"SEX":"F","RACE":"WHITE","ARMCD":"Xan_Hi","TRTSDT":"2014-07-01","TRTEDT":"2014-12-30"},{"STUDYID":"CDISCPILOT01","USUBJID":"01-701-1034","DOMAIN":"ADVS","PARAMCD":"VSDBPST","PARAM":"Diastolic Blood Pressure (Standing) (mmHg)","PARAMN":4,"ADT":"2014-08-26","ADY":57,"AVISIT":"Week 8","AVISITN":8,"AVAL":80,"AVALU":"mmHg","BASE":75,"CHG":5,"PCHG":6.6667,"ABLFL":"Y","TRT01A":"Xanomeline High Dose","TRT01AN":3,"SAFFL":"Y","ITTFL":"Y","SITEID":"701","AGE":77,"SEX":"F","RACE":"WHITE","ARMCD":"Xan_Hi","TRTSDT":"2014-07-01","TRTEDT":"2014-12-30"},{"STUDYID":"CDISCPILOT01","USUBJID":"01-701-1034","DOMAIN":"ADVS","PARAMCD":"VSDBPST","PARAM":"Diastolic Blood Pressure (Standing) (mmHg)","PARAMN":4,"ADT":"2014-09-25","ADY":87,"AVISIT":"Week 12","AVISITN":12,"AVAL":66,"AVALU":"mmHg","BASE":75,"CHG":-9,"PCHG":-12,"ABLFL":"Y","TRT01A":"Xanomeline High Dose","TRT01AN":3,"SAFFL":"Y","ITTFL":"Y","SITEID":"701","AGE":77,"SEX":"F","RACE":"WHITE","ARMCD":"Xan_Hi","TRTSDT":"2014-07-01","TRTEDT":"2014-12-30"},{"STUDYID":"CDISCPILOT01","USUBJID":"01-701-1034","DOMAIN":"ADVS","PARAMCD":"VSDBPST","PARAM":"Diastolic Blood Pressure (Standing) (mmHg)","PARAMN":4,"ADT":"2014-10-21","ADY":113,"AVISIT":"Week 16","AVISITN":16,"AVAL":77,"AVALU":"mmHg","BASE":75,"CHG":2,"PCHG":2.6667,"ABLFL":"Y","TRT01A":"Xanomeline High Dose","TRT01AN":3,"SAFFL":"Y","ITTFL":"Y","SITEID":"701","AGE":77,"SEX":"F","RACE":"WHITE","ARMCD":"Xan_Hi","TRTSDT":"2014-07-01","TRTEDT":"2014-12-30"},{"STUDYID":"CDISCPILOT01","USUBJID":"01-701-1034","DOMAIN":"ADVS","PARAMCD":"VSDBPST","PARAM":"Diastolic Blood Pressure (Standing) (mmHg)","PARAMN":4,"ADT":"2014-11-18","ADY":141,"AVISIT":"Week 20","AVISITN":20,"AVAL":77,"AVALU":"mmHg","BASE":75,"CHG":2,"PCHG":2.6667,"ABLFL":"Y","TRT01A":"Xanomeline High Dose","TRT01AN":3,"SAFFL":"Y","ITTFL":"Y","SITEID":"701","AGE":77,"SEX":"F","RACE":"WHITE","ARMCD":"Xan_Hi","TRTSDT":"2014-07-01","TRTEDT":"2014-12-30"},{"STUDYID":"CDISCPILOT01","USUBJID":"01-701-1034","DOMAIN":"ADVS","PARAMCD":"VSDBPST","PARAM":"Diastolic Blood Pressure (Standing) (mmHg)","PARAMN":4,"ADT":"2014-12-17","ADY":170,"AVISIT":"Week 24","AVISITN":24,"AVAL":97,"AVALU":"mmHg","BASE":75,"CHG":22,"PCHG":29.3333,"ABLFL":"Y","TRT01A":"Xanomeline High Dose","TRT01AN":3,"SAFFL":"Y","ITTFL":"Y","SITEID":"701","AGE":77,"SEX":"F","RACE":"WHITE","ARMCD":"Xan_Hi","TRTSDT":"2014-07-01","TRTEDT":"2014-12-30"},{"STUDYID":"CDISCPILOT01","USUBJID":"01-701-1034","DOMAIN":"ADVS","PARAMCD":"VSDBPST","PARAM":"Diastolic Blood Pressure (Standing) (mmHg)","PARAMN":4,"ADT":"2014-12-30","ADY":183,"AVISIT":"Week 26","AVISITN":26,"AVAL":93,"AVALU":"mmHg","BASE":75,"CHG":18,"PCHG":24,"ABLFL":"Y","TRT01A":"Xanomeline High Dose","TRT01AN":3,"SAFFL":"Y","ITTFL":"Y","SITEID":"701","AGE":77,"SEX":"F","RACE":"WHITE","ARMCD":"Xan_Hi","TRTSDT":"2014-07-01","TRTEDT":"2014-12-30"},{"STUDYID":"CDISCPILOT01","USUBJID":"01-701-1034","DOMAIN":"ADVS","PARAMCD":"PULSE","PARAM":"Pulse Rate (Supine) (beats/min)","PARAMN":5,"ADT":"2014-06-24","ADY":-7,"AVISIT":"Screening","AVISITN":-2,"AVAL":69,"AVALU":"BEATS/MIN","BASE":76,"CHG":null,"PCHG":null,"ABLFL":"Y","TRT01A":"Xanomeline High Dose","TRT01AN":3,"SAFFL":"Y","ITTFL":"Y","SITEID":"701","AGE":77,"SEX":"F","RACE":"WHITE","ARMCD":"Xan_Hi","TRTSDT":"2014-07-01","TRTEDT":"2014-12-30"},{"STUDYID":"CDISCPILOT01","USUBJID":"01-701-1034","DOMAIN":"ADVS","PARAMCD":"PULSE","PARAM":"Pulse Rate (Supine) (beats/min)","PARAMN":5,"ADT":"2014-07-01","ADY":1,"AVISIT":"Baseline","AVISITN":0,"AVAL":76,"AVALU":"BEATS/MIN","BASE":76,"CHG":null,"PCHG":null,"ABLFL":"Y","TRT01A":"Xanomeline High Dose","TRT01AN":3,"SAFFL":"Y","ITTFL":"Y","SITEID":"701","AGE":77,"SEX":"F","RACE":"WHITE","ARMCD":"Xan_Hi","TRTSDT":"2014-07-01","TRTEDT":"2014-12-30"},{"STUDYID":"CDISCPILOT01","USUBJID":"01-701-1034","DOMAIN":"ADVS","PARAMCD":"PULSE","PARAM":"Pulse Rate (Supine) (beats/min)","PARAMN":5,"ADT":"2014-07-15","ADY":15,"AVISIT":"Week 2","AVISITN":2,"AVAL":86,"AVALU":"BEATS/MIN","BASE":76,"CHG":10,"PCHG":13.1579,"ABLFL":"Y","TRT01A":"Xanomeline High Dose","TRT01AN":3,"SAFFL":"Y","ITTFL":"Y","SITEID":"701","AGE":77,"SEX":"F","RACE":"WHITE","ARMCD":"Xan_Hi","TRTSDT":"2014-07-01","TRTEDT":"2014-12-30"},{"STUDYID":"CDISCPILOT01","USUBJID":"01-701-1034","DOMAIN":"ADVS","PARAMCD":"PULSE","PARAM":"Pulse Rate (Supine) (beats/min)","PARAMN":5,"ADT":"2014-07-29","ADY":29,"AVISIT":"Week 4","AVISITN":4,"AVAL":87,"AVALU":"BEATS/MIN","BASE":76,"CHG":11,"PCHG":14.4737,"ABLFL":"Y","TRT01A":"Xanomeline High Dose","TRT01AN":3,"SAFFL":"Y","ITTFL":"Y","SITEID":"701","AGE":77,"SEX":"F","RACE":"WHITE","ARMCD":"Xan_Hi","TRTSDT":"2014-07-01","TRTEDT":"2014-12-30"},{"STUDYID":"CDISCPILOT01","USUBJID":"01-701-1034","DOMAIN":"ADVS","PARAMCD":"PULSE","PARAM":"Pulse Rate (Supine) (beats/min)","PARAMN":5,"ADT":"2014-08-11","ADY":42,"AVISIT":"Week 6","AVISITN":6,"AVAL":97,"AVALU":"BEATS/MIN","BASE":76,"CHG":21,"PCHG":27.6316,"ABLFL":"Y","TRT01A":"Xanomeline High Dose","TRT01AN":3,"SAFFL":"Y","ITTFL":"Y","SITEID":"701","AGE":77,"SEX":"F","RACE":"WHITE","ARMCD":"Xan_Hi","TRTSDT":"2014-07-01","TRTEDT":"2014-12-30"},{"STUDYID":"CDISCPILOT01","USUBJID":"01-701-1034","DOMAIN":"ADVS","PARAMCD":"PULSE","PARAM":"Pulse Rate (Supine) (beats/min)","PARAMN":5,"ADT":"2014-08-26","ADY":57,"AVISIT":"Week 8","AVISITN":8,"AVAL":78,"AVALU":"BEATS/MIN","BASE":76,"CHG":2,"PCHG":2.6316,"ABLFL":"Y","TRT01A":"Xanomeline High Dose","TRT01AN":3,"SAFFL":"Y","ITTFL":"Y","SITEID":"701","AGE":77,"SEX":"F","RACE":"WHITE","ARMCD":"Xan_Hi","TRTSDT":"2014-07-01","TRTEDT":"2014-12-30"},{"STUDYID":"CDISCPILOT01","USUBJID":"01-701-1034","DOMAIN":"ADVS","PARAMCD":"PULSE","PARAM":"Pulse Rate (Supine) (beats/min)","PARAMN":5,"ADT":"2014-09-25","ADY":87,"AVISIT":"Week 12","AVISITN":12,"AVAL":66,"AVALU":"BEATS/MIN","BASE":76,"CHG":-10,"PCHG":-13.1579,"ABLFL":"Y","TRT01A":"Xanomeline High Dose","TRT01AN":3,"SAFFL":"Y","ITTFL":"Y","SITEID":"701","AGE":77,"SEX":"F","RACE":"WHITE","ARMCD":"Xan_Hi","TRTSDT":"2014-07-01","TRTEDT":"2014-12-30"},{"STUDYID":"CDISCPILOT01","USUBJID":"01-701-1034","DOMAIN":"ADVS","PARAMCD":"PULSE","PARAM":"Pulse Rate (Supine) (beats/min)","PARAMN":5,"ADT":"2014-10-21","ADY":113,"AVISIT":"Week 16","AVISITN":16,"AVAL":74,"AVALU":"BEATS/MIN","BASE":76,"CHG":-2,"PCHG":-2.6316,"ABLFL":"Y","TRT01A":"Xanomeline High Dose","TRT01AN":3,"SAFFL":"Y","ITTFL":"Y","SITEID":"701","AGE":77,"SEX":"F","RACE":"WHITE","ARMCD":"Xan_Hi","TRTSDT":"2014-07-01","TRTEDT":"2014-12-30"},{"STUDYID":"CDISCPILOT01","USUBJID":"01-701-1034","DOMAIN":"ADVS","PARAMCD":"PULSE","PARAM":"Pulse Rate (Supine) (beats/min)","PARAMN":5,"ADT":"2014-11-18","ADY":141,"AVISIT":"Week 20","AVISITN":20,"AVAL":86,"AVALU":"BEATS/MIN","BASE":76,"CHG":10,"PCHG":13.1579,"ABLFL":"Y","TRT01A":"Xanomeline High Dose","TRT01AN":3,"SAFFL":"Y","ITTFL":"Y","SITEID":"701","AGE":77,"SEX":"F","RACE":"WHITE","ARMCD":"Xan_Hi","TRTSDT":"2014-07-01","TRTEDT":"2014-12-30"},{"STUDYID":"CDISCPILOT01","USUBJID":"01-701-1034","DOMAIN":"ADVS","PARAMCD":"PULSE","PARAM":"Pulse Rate (Supine) (beats/min)","PARAMN":5,"ADT":"2014-12-17","ADY":170,"AVISIT":"Week 24","AVISITN":24,"AVAL":96,"AVALU":"BEATS/MIN","BASE":76,"CHG":20,"PCHG":26.3158,"ABLFL":"Y","TRT01A":"Xanomeline High Dose","TRT01AN":3,"SAFFL":"Y","ITTFL":"Y","SITEID":"701","AGE":77,"SEX":"F","RACE":"WHITE","ARMCD":"Xan_Hi","TRTSDT":"2014-07-01","TRTEDT":"2014-12-30"},{"STUDYID":"CDISCPILOT01","USUBJID":"01-701-1034","DOMAIN":"ADVS","PARAMCD":"PULSE","PARAM":"Pulse Rate (Supine) (beats/min)","PARAMN":5,"ADT":"2014-12-30","ADY":183,"AVISIT":"Week 26","AVISITN":26,"AVAL":74,"AVALU":"BEATS/MIN","BASE":76,"CHG":-2,"PCHG":-2.6316,"ABLFL":"Y","TRT01A":"Xanomeline High Dose","TRT01AN":3,"SAFFL":"Y","ITTFL":"Y","SITEID":"701","AGE":77,"SEX":"F","RACE":"WHITE","ARMCD":"Xan_Hi","TRTSDT":"2014-07-01","TRTEDT":"2014-12-30"},{"STUDYID":"CDISCPILOT01","USUBJID":"01-701-1034","DOMAIN":"ADVS","PARAMCD":"VSPULST","PARAM":"Pulse Rate (Standing) (beats/min)","PARAMN":6,"ADT":"2014-06-24","ADY":-7,"AVISIT":"Screening","AVISITN":-2,"AVAL":76,"AVALU":"BEATS/MIN","BASE":83,"CHG":null,"PCHG":null,"ABLFL":"Y","TRT01A":"Xanomeline High Dose","TRT01AN":3,"SAFFL":"Y","ITTFL":"Y","SITEID":"701","AGE":77,"SEX":"F","RACE":"WHITE","ARMCD":"Xan_Hi","TRTSDT":"2014-07-01","TRTEDT":"2014-12-30"},{"STUDYID":"CDISCPILOT01","USUBJID":"01-701-1034","DOMAIN":"ADVS","PARAMCD":"VSPULST","PARAM":"Pulse Rate (Standing) (beats/min)","PARAMN":6,"ADT":"2014-07-01","ADY":1,"AVISIT":"Baseline","AVISITN":0,"AVAL":83,"AVALU":"BEATS/MIN","BASE":83,"CHG":null,"PCHG":null,"ABLFL":"Y","TRT01A":"Xanomeline High Dose","TRT01AN":3,"SAFFL":"Y","ITTFL":"Y","SITEID":"701","AGE":77,"SEX":"F","RACE":"WHITE","ARMCD":"Xan_Hi","TRTSDT":"2014-07-01","TRTEDT":"2014-12-30"},{"STUDYID":"CDISCPILOT01","USUBJID":"01-701-1034","DOMAIN":"ADVS","PARAMCD":"VSPULST","PARAM":"Pulse Rate (Standing) (beats/min)","PARAMN":6,"ADT":"2014-07-15","ADY":15,"AVISIT":"Week 2","AVISITN":2,"AVAL":91,"AVALU":"BEATS/MIN","BASE":83,"CHG":8,"PCHG":9.6386,"ABLFL":"Y","TRT01A":"Xanomeline High Dose","TRT01AN":3,"SAFFL":"Y","ITTFL":"Y","SITEID":"701","AGE":77,"SEX":"F","RACE":"WHITE","ARMCD":"Xan_Hi","TRTSDT":"2014-07-01","TRTEDT":"2014-12-30"},{"STUDYID":"CDISCPILOT01","USUBJID":"01-701-1034","DOMAIN":"ADVS","PARAMCD":"VSPULST","PARAM":"Pulse Rate (Standing) (beats/min)","PARAMN":6,"ADT":"2014-07-29","ADY":29,"AVISIT":"Week 4","AVISITN":4,"AVAL":91,"AVALU":"BEATS/MIN","BASE":83,"CHG":8,"PCHG":9.6386,"ABLFL":"Y","TRT01A":"Xanomeline High Dose","TRT01AN":3,"SAFFL":"Y","ITTFL":"Y","SITEID":"701","AGE":77,"SEX":"F","RACE":"WHITE","ARMCD":"Xan_Hi","TRTSDT":"2014-07-01","TRTEDT":"2014-12-30"},{"STUDYID":"CDISCPILOT01","USUBJID":"01-701-1034","DOMAIN":"ADVS","PARAMCD":"VSPULST","PARAM":"Pulse Rate (Standing) (beats/min)","PARAMN":6,"ADT":"2014-08-11","ADY":42,"AVISIT":"Week 6","AVISITN":6,"AVAL":93,"AVALU":"BEATS/MIN","BASE":83,"CHG":10,"PCHG":12.0482,"ABLFL":"Y","TRT01A":"Xanomeline High Dose","TRT01AN":3,"SAFFL":"Y","ITTFL":"Y","SITEID":"701","AGE":77,"SEX":"F","RACE":"WHITE","ARMCD":"Xan_Hi","TRTSDT":"2014-07-01","TRTEDT":"2014-12-30"},{"STUDYID":"CDISCPILOT01","USUBJID":"01-701-1034","DOMAIN":"ADVS","PARAMCD":"VSPULST","PARAM":"Pulse Rate (Standing) (beats/min)","PARAMN":6,"ADT":"2014-08-26","ADY":57,"AVISIT":"Week 8","AVISITN":8,"AVAL":71,"AVALU":"BEATS/MIN","BASE":83,"CHG":-12,"PCHG":-14.4578,"ABLFL":"Y","TRT01A":"Xanomeline High Dose","TRT01AN":3,"SAFFL":"Y","ITTFL":"Y","SITEID":"701","AGE":77,"SEX":"F","RACE":"WHITE","ARMCD":"Xan_Hi","TRTSDT":"2014-07-01","TRTEDT":"2014-12-30"},{"STUDYID":"CDISCPILOT01","USUBJID":"01-701-1034","DOMAIN":"ADVS","PARAMCD":"VSPULST","PARAM":"Pulse Rate (Standing) (beats/min)","PARAMN":6,"ADT":"2014-09-25","ADY":87,"AVISIT":"Week 12","AVISITN":12,"AVAL":70,"AVALU":"BEATS/MIN","BASE":83,"CHG":-13,"PCHG":-15.6627,"ABLFL":"Y","TRT01A":"Xanomeline High Dose","TRT01AN":3,"SAFFL":"Y","ITTFL":"Y","SITEID":"701","AGE":77,"SEX":"F","RACE":"WHITE","ARMCD":"Xan_Hi","TRTSDT":"2014-07-01","TRTEDT":"2014-12-30"},{"STUDYID":"CDISCPILOT01","USUBJID":"01-701-1034","DOMAIN":"ADVS","PARAMCD":"VSPULST","PARAM":"Pulse Rate (Standing) (beats/min)","PARAMN":6,"ADT":"2014-10-21","ADY":113,"AVISIT":"Week 16","AVISITN":16,"AVAL":79,"AVALU":"BEATS/MIN","BASE":83,"CHG":-4,"PCHG":-4.8193,"ABLFL":"Y","TRT01A":"Xanomeline High Dose","TRT01AN":3,"SAFFL":"Y","ITTFL":"Y","SITEID":"701","AGE":77,"SEX":"F","RACE":"WHITE","ARMCD":"Xan_Hi","TRTSDT":"2014-07-01","TRTEDT":"2014-12-30"},{"STUDYID":"CDISCPILOT01","USUBJID":"01-701-1034","DOMAIN":"ADVS","PARAMCD":"VSPULST","PARAM":"Pulse Rate (Standing) (beats/min)","PARAMN":6,"ADT":"2014-11-18","ADY":141,"AVISIT":"Week 20","AVISITN":20,"AVAL":84,"AVALU":"BEATS/MIN","BASE":83,"CHG":1,"PCHG":1.2048,"ABLFL":"Y","TRT01A":"Xanomeline High Dose","TRT01AN":3,"SAFFL":"Y","ITTFL":"Y","SITEID":"701","AGE":77,"SEX":"F","RACE":"WHITE","ARMCD":"Xan_Hi","TRTSDT":"2014-07-01","TRTEDT":"2014-12-30"},{"STUDYID":"CDISCPILOT01","USUBJID":"01-701-1034","DOMAIN":"ADVS","PARAMCD":"VSPULST","PARAM":"Pulse Rate (Standing) (beats/min)","PARAMN":6,"ADT":"2014-12-17","ADY":170,"AVISIT":"Week 24","AVISITN":24,"AVAL":97,"AVALU":"BEATS/MIN","BASE":83,"CHG":14,"PCHG":16.8675,"ABLFL":"Y","TRT01A":"Xanomeline High Dose","TRT01AN":3,"SAFFL":"Y","ITTFL":"Y","SITEID":"701","AGE":77,"SEX":"F","RACE":"WHITE","ARMCD":"Xan_Hi","TRTSDT":"2014-07-01","TRTEDT":"2014-12-30"},{"STUDYID":"CDISCPILOT01","USUBJID":"01-701-1034","DOMAIN":"ADVS","PARAMCD":"VSPULST","PARAM":"Pulse Rate (Standing) (beats/min)","PARAMN":6,"ADT":"2014-12-30","ADY":183,"AVISIT":"Week 26","AVISITN":26,"AVAL":86,"AVALU":"BEATS/MIN","BASE":83,"CHG":3,"PCHG":3.6145,"ABLFL":"Y","TRT01A":"Xanomeline High Dose","TRT01AN":3,"SAFFL":"Y","ITTFL":"Y","SITEID":"701","AGE":77,"SEX":"F","RACE":"WHITE","ARMCD":"Xan_Hi","TRTSDT":"2014-07-01","TRTEDT":"2014-12-30"},{"STUDYID":"CDISCPILOT01","USUBJID":"01-701-1034","DOMAIN":"ADVS","PARAMCD":"WEIGHT","PARAM":"Weight (kg)","PARAMN":7,"ADT":"2014-06-24","ADY":-7,"AVISIT":"Screening","AVISITN":-2,"AVAL":63.5,"AVALU":"kg","BASE":62.6,"CHG":null,"PCHG":null,"ABLFL":"Y","TRT01A":"Xanomeline High Dose","TRT01AN":3,"SAFFL":"Y","ITTFL":"Y","SITEID":"701","AGE":77,"SEX":"F","RACE":"WHITE","ARMCD":"Xan_Hi","TRTSDT":"2014-07-01","TRTEDT":"2014-12-30"},{"STUDYID":"CDISCPILOT01","USUBJID":"01-701-1034","DOMAIN":"ADVS","PARAMCD":"WEIGHT","PARAM":"Weight (kg)","PARAMN":7,"ADT":"2014-07-01","ADY":1,"AVISIT":"Baseline","AVISITN":0,"AVAL":62.6,"AVALU":"kg","BASE":62.6,"CHG":null,"PCHG":null,"ABLFL":"Y","TRT01A":"Xanomeline High Dose","TRT01AN":3,"SAFFL":"Y","ITTFL":"Y","SITEID":"701","AGE":77,"SEX":"F","RACE":"WHITE","ARMCD":"Xan_Hi","TRTSDT":"2014-07-01","TRTEDT":"2014-12-30"},{"STUDYID":"CDISCPILOT01","USUBJID":"01-701-1034","DOMAIN":"ADVS","PARAMCD":"WEIGHT","PARAM":"Weight (kg)","PARAMN":7,"ADT":"2014-07-15","ADY":15,"AVISIT":"Week 2","AVISITN":2,"AVAL":62.6,"AVALU":"kg","BASE":62.6,"CHG":0,"PCHG":0,"ABLFL":"Y","TRT01A":"Xanomeline High Dose","TRT01AN":3,"SAFFL":"Y","ITTFL":"Y","SITEID":"701","AGE":77,"SEX":"F","RACE":"WHITE","ARMCD":"Xan_Hi","TRTSDT":"2014-07-01","TRTEDT":"2014-12-30"},{"STUDYID":"CDISCPILOT01","USUBJID":"01-701-1034","DOMAIN":"ADVS","PARAMCD":"WEIGHT","PARAM":"Weight (kg)","PARAMN":7,"ADT":"2014-07-29","ADY":29,"AVISIT":"Week 4","AVISITN":4,"AVAL":63.96,"AVALU":"kg","BASE":62.6,"CHG":1.36,"PCHG":2.1725,"ABLFL":"Y","TRT01A":"Xanomeline High Dose","TRT01AN":3,"SAFFL":"Y","ITTFL":"Y","SITEID":"701","AGE":77,"SEX":"F","RACE":"WHITE","ARMCD":"Xan_Hi","TRTSDT":"2014-07-01","TRTEDT":"2014-12-30"},{"STUDYID":"CDISCPILOT01","USUBJID":"01-701-1034","DOMAIN":"ADVS","PARAMCD":"WEIGHT","PARAM":"Weight (kg)","PARAMN":7,"ADT":"2014-08-11","ADY":42,"AVISIT":"Week 6","AVISITN":6,"AVAL":63.96,"AVALU":"kg","BASE":62.6,"CHG":1.36,"PCHG":2.1725,"ABLFL":"Y","TRT01A":"Xanomeline High Dose","TRT01AN":3,"SAFFL":"Y","ITTFL":"Y","SITEID":"701","AGE":77,"SEX":"F","RACE":"WHITE","ARMCD":"Xan_Hi","TRTSDT":"2014-07-01","TRTEDT":"2014-12-30"},{"STUDYID":"CDISCPILOT01","USUBJID":"01-701-1034","DOMAIN":"ADVS","PARAMCD":"WEIGHT","PARAM":"Weight (kg)","PARAMN":7,"ADT":"2014-08-26","ADY":57,"AVISIT":"Week 8","AVISITN":8,"AVAL":63.05,"AVALU":"kg","BASE":62.6,"CHG":0.45,"PCHG":0.7188,"ABLFL":"Y","TRT01A":"Xanomeline High Dose","TRT01AN":3,"SAFFL":"Y","ITTFL":"Y","SITEID":"701","AGE":77,"SEX":"F","RACE":"WHITE","ARMCD":"Xan_Hi","TRTSDT":"2014-07-01","TRTEDT":"2014-12-30"},{"STUDYID":"CDISCPILOT01","USUBJID":"01-701-1034","DOMAIN":"ADVS","PARAMCD":"WEIGHT","PARAM":"Weight (kg)","PARAMN":7,"ADT":"2014-09-25","ADY":87,"AVISIT":"Week 12","AVISITN":12,"AVAL":63.05,"AVALU":"kg","BASE":62.6,"CHG":0.45,"PCHG":0.7188,"ABLFL":"Y","TRT01A":"Xanomeline High Dose","TRT01AN":3,"SAFFL":"Y","ITTFL":"Y","SITEID":"701","AGE":77,"SEX":"F","RACE":"WHITE","ARMCD":"Xan_Hi","TRTSDT":"2014-07-01","TRTEDT":"2014-12-30"},{"STUDYID":"CDISCPILOT01","USUBJID":"01-701-1034","DOMAIN":"ADVS","PARAMCD":"WEIGHT","PARAM":"Weight (kg)","PARAMN":7,"ADT":"2014-10-21","ADY":113,"AVISIT":"Week 16","AVISITN":16,"AVAL":64.41,"AVALU":"kg","BASE":62.6,"CHG":1.81,"PCHG":2.8914,"ABLFL":"Y","TRT01A":"Xanomeline High Dose","TRT01AN":3,"SAFFL":"Y","ITTFL":"Y","SITEID":"701","AGE":77,"SEX":"F","RACE":"WHITE","ARMCD":"Xan_Hi","TRTSDT":"2014-07-01","TRTEDT":"2014-12-30"},{"STUDYID":"CDISCPILOT01","USUBJID":"01-701-1034","DOMAIN":"ADVS","PARAMCD":"WEIGHT","PARAM":"Weight (kg)","PARAMN":7,"ADT":"2014-11-18","ADY":141,"AVISIT":"Week 20","AVISITN":20,"AVAL":64.86,"AVALU":"kg","BASE":62.6,"CHG":2.26,"PCHG":3.6102,"ABLFL":"Y","TRT01A":"Xanomeline High Dose","TRT01AN":3,"SAFFL":"Y","ITTFL":"Y","SITEID":"701","AGE":77,"SEX":"F","RACE":"WHITE","ARMCD":"Xan_Hi","TRTSDT":"2014-07-01","TRTEDT":"2014-12-30"},{"STUDYID":"CDISCPILOT01","USUBJID":"01-701-1034","DOMAIN":"ADVS","PARAMCD":"WEIGHT","PARAM":"Weight (kg)","PARAMN":7,"ADT":"2014-12-17","ADY":170,"AVISIT":"Week 24","AVISITN":24,"AVAL":65.32,"AVALU":"kg","BASE":62.6,"CHG":2.72,"PCHG":4.345,"ABLFL":"Y","TRT01A":"Xanomeline High Dose","TRT01AN":3,"SAFFL":"Y","ITTFL":"Y","SITEID":"701","AGE":77,"SEX":"F","RACE":"WHITE","ARMCD":"Xan_Hi","TRTSDT":"2014-07-01","TRTEDT":"2014-12-30"},{"STUDYID":"CDISCPILOT01","USUBJID":"01-701-1034","DOMAIN":"ADVS","PARAMCD":"WEIGHT","PARAM":"Weight (kg)","PARAMN":7,"ADT":"2014-12-30","ADY":183,"AVISIT":"Week 26","AVISITN":26,"AVAL":63.96,"AVALU":"kg","BASE":62.6,"CHG":1.36,"PCHG":2.1725,"ABLFL":"Y","TRT01A":"Xanomeline High Dose","TRT01AN":3,"SAFFL":"Y","ITTFL":"Y","SITEID":"701","AGE":77,"SEX":"F","RACE":"WHITE","ARMCD":"Xan_Hi","TRTSDT":"2014-07-01","TRTEDT":"2014-12-30"},{"STUDYID":"CDISCPILOT01","USUBJID":"01-701-1034","DOMAIN":"ADVS","PARAMCD":"HEIGHT","PARAM":"Height (cm)","PARAMN":8,"ADT":"2014-06-24","ADY":-7,"AVISIT":"Screening","AVISITN":-2,"AVAL":154.94,"AVALU":"cm","BASE":154.94,"CHG":null,"PCHG":null,"ABLFL":"Y","TRT01A":"Xanomeline High Dose","TRT01AN":3,"SAFFL":"Y","ITTFL":"Y","SITEID":"701","AGE":77,"SEX":"F","RACE":"WHITE","ARMCD":"Xan_Hi","TRTSDT":"2014-07-01","TRTEDT":"2014-12-30"},{"STUDYID":"CDISCPILOT01","USUBJID":"01-701-1034","DOMAIN":"ADVS","PARAMCD":"TEMP","PARAM":"Temperature (C)","PARAMN":9,"ADT":"2014-06-24","ADY":-7,"AVISIT":"Screening","AVISITN":-2,"AVAL":36.22,"AVALU":"C","BASE":36.94,"CHG":null,"PCHG":null,"ABLFL":"Y","TRT01A":"Xanomeline High Dose","TRT01AN":3,"SAFFL":"Y","ITTFL":"Y","SITEID":"701","AGE":77,"SEX":"F","RACE":"WHITE","ARMCD":"Xan_Hi","TRTSDT":"2014-07-01","TRTEDT":"2014-12-30"},{"STUDYID":"CDISCPILOT01","USUBJID":"01-701-1034","DOMAIN":"ADVS","PARAMCD":"TEMP","PARAM":"Temperature (C)","PARAMN":9,"ADT":"2014-07-01","ADY":1,"AVISIT":"Baseline","AVISITN":0,"AVAL":36.94,"AVALU":"C","BASE":36.94,"CHG":null,"PCHG":null,"ABLFL":"Y","TRT01A":"Xanomeline High Dose","TRT01AN":3,"SAFFL":"Y","ITTFL":"Y","SITEID":"701","AGE":77,"SEX":"F","RACE":"WHITE","ARMCD":"Xan_Hi","TRTSDT":"2014-07-01","TRTEDT":"2014-12-30"},{"STUDYID":"CDISCPILOT01","USUBJID":"01-701-1034","DOMAIN":"ADVS","PARAMCD":"TEMP","PARAM":"Temperature (C)","PARAMN":9,"ADT":"2014-07-15","ADY":15,"AVISIT":"Week 2","AVISITN":2,"AVAL":36.56,"AVALU":"C","BASE":36.94,"CHG":-0.38,"PCHG":-1.0287,"ABLFL":"Y","TRT01A":"Xanomeline High Dose","TRT01AN":3,"SAFFL":"Y","ITTFL":"Y","SITEID":"701","AGE":77,"SEX":"F","RACE":"WHITE","ARMCD":"Xan_Hi","TRTSDT":"2014-07-01","TRTEDT":"2014-12-30"},{"STUDYID":"CDISCPILOT01","USUBJID":"01-701-1034","DOMAIN":"ADVS","PARAMCD":"TEMP","PARAM":"Temperature (C)","PARAMN":9,"ADT":"2014-07-29","ADY":29,"AVISIT":"Week 4","AVISITN":4,"AVAL":36.61,"AVALU":"C","BASE":36.94,"CHG":-0.33,"PCHG":-0.8933,"ABLFL":"Y","TRT01A":"Xanomeline High Dose","TRT01AN":3,"SAFFL":"Y","ITTFL":"Y","SITEID":"701","AGE":77,"SEX":"F","RACE":"WHITE","ARMCD":"Xan_Hi","TRTSDT":"2014-07-01","TRTEDT":"2014-12-30"},{"STUDYID":"CDISCPILOT01","USUBJID":"01-701-1034","DOMAIN":"ADVS","PARAMCD":"TEMP","PARAM":"Temperature (C)","PARAMN":9,"ADT":"2014-08-11","ADY":42,"AVISIT":"Week 6","AVISITN":6,"AVAL":37.06,"AVALU":"C","BASE":36.94,"CHG":0.12,"PCHG":0.3249,"ABLFL":"Y","TRT01A":"Xanomeline High Dose","TRT01AN":3,"SAFFL":"Y","ITTFL":"Y","SITEID":"701","AGE":77,"SEX":"F","RACE":"WHITE","ARMCD":"Xan_Hi","TRTSDT":"2014-07-01","TRTEDT":"2014-12-30"},{"STUDYID":"CDISCPILOT01","USUBJID":"01-701-1034","DOMAIN":"ADVS","PARAMCD":"TEMP","PARAM":"Temperature (C)","PARAMN":9,"ADT":"2014-08-26","ADY":57,"AVISIT":"Week 8","AVISITN":8,"AVAL":36.72,"AVALU":"C","BASE":36.94,"CHG":-0.22,"PCHG":-0.5956,"ABLFL":"Y","TRT01A":"Xanomeline High Dose","TRT01AN":3,"SAFFL":"Y","ITTFL":"Y","SITEID":"701","AGE":77,"SEX":"F","RACE":"WHITE","ARMCD":"Xan_Hi","TRTSDT":"2014-07-01","TRTEDT":"2014-12-30"},{"STUDYID":"CDISCPILOT01","USUBJID":"01-701-1034","DOMAIN":"ADVS","PARAMCD":"TEMP","PARAM":"Temperature (C)","PARAMN":9,"ADT":"2014-09-25","ADY":87,"AVISIT":"Week 12","AVISITN":12,"AVAL":37.06,"AVALU":"C","BASE":36.94,"CHG":0.12,"PCHG":0.3249,"ABLFL":"Y","TRT01A":"Xanomeline High Dose","TRT01AN":3,"SAFFL":"Y","ITTFL":"Y","SITEID":"701","AGE":77,"SEX":"F","RACE":"WHITE","ARMCD":"Xan_Hi","TRTSDT":"2014-07-01","TRTEDT":"2014-12-30"},{"STUDYID":"CDISCPILOT01","USUBJID":"01-701-1034","DOMAIN":"ADVS","PARAMCD":"TEMP","PARAM":"Temperature (C)","PARAMN":9,"ADT":"2014-10-21","ADY":113,"AVISIT":"Week 16","AVISITN":16,"AVAL":36.94,"AVALU":"C","BASE":36.94,"CHG":0,"PCHG":0,"ABLFL":"Y","TRT01A":"Xanomeline High Dose","TRT01AN":3,"SAFFL":"Y","ITTFL":"Y","SITEID":"701","AGE":77,"SEX":"F","RACE":"WHITE","ARMCD":"Xan_Hi","TRTSDT":"2014-07-01","TRTEDT":"2014-12-30"},{"STUDYID":"CDISCPILOT01","USUBJID":"01-701-1034","DOMAIN":"ADVS","PARAMCD":"TEMP","PARAM":"Temperature (C)","PARAMN":9,"ADT":"2014-11-18","ADY":141,"AVISIT":"Week 20","AVISITN":20,"AVAL":36.89,"AVALU":"C","BASE":36.94,"CHG":-0.05,"PCHG":-0.1354,"ABLFL":"Y","TRT01A":"Xanomeline High Dose","TRT01AN":3,"SAFFL":"Y","ITTFL":"Y","SITEID":"701","AGE":77,"SEX":"F","RACE":"WHITE","ARMCD":"Xan_Hi","TRTSDT":"2014-07-01","TRTEDT":"2014-12-30"},{"STUDYID":"CDISCPILOT01","USUBJID":"01-701-1034","DOMAIN":"ADVS","PARAMCD":"TEMP","PARAM":"Temperature (C)","PARAMN":9,"ADT":"2014-12-17","ADY":170,"AVISIT":"Week 24","AVISITN":24,"AVAL":36.72,"AVALU":"C","BASE":36.94,"CHG":-0.22,"PCHG":-0.5956,"ABLFL":"Y","TRT01A":"Xanomeline High Dose","TRT01AN":3,"SAFFL":"Y","ITTFL":"Y","SITEID":"701","AGE":77,"SEX":"F","RACE":"WHITE","ARMCD":"Xan_Hi","TRTSDT":"2014-07-01","TRTEDT":"2014-12-30"},{"STUDYID":"CDISCPILOT01","USUBJID":"01-701-1034","DOMAIN":"ADVS","PARAMCD":"TEMP","PARAM":"Temperature (C)","PARAMN":9,"ADT":"2014-12-30","ADY":183,"AVISIT":"Week 26","AVISITN":26,"AVAL":36.56,"AVALU":"C","BASE":36.94,"CHG":-0.38,"PCHG":-1.0287,"ABLFL":"Y","TRT01A":"Xanomeline High Dose","TRT01AN":3,"SAFFL":"Y","ITTFL":"Y","SITEID":"701","AGE":77,"SEX":"F","RACE":"WHITE","ARMCD":"Xan_Hi","TRTSDT":"2014-07-01","TRTEDT":"2014-12-30"},{"STUDYID":"CDISCPILOT01","USUBJID":"01-701-1047","DOMAIN":"ADVS","PARAMCD":"SYSBP","PARAM":"Systolic Blood Pressure (Supine) (mmHg)","PARAMN":1,"ADT":"2013-01-22","ADY":-21,"AVISIT":"Screening","AVISITN":-2,"AVAL":165,"AVALU":"mmHg","BASE":151,"CHG":null,"PCHG":null,"ABLFL":"Y","TRT01A":"Placebo","TRT01AN":1,"SAFFL":"Y","ITTFL":"Y","SITEID":"701","AGE":85,"SEX":"F","RACE":"WHITE","ARMCD":"Pbo","TRTSDT":"2013-02-12","TRTEDT":"2013-03-09"},{"STUDYID":"CDISCPILOT01","USUBJID":"01-701-1047","DOMAIN":"ADVS","PARAMCD":"SYSBP","PARAM":"Systolic Blood Pressure (Supine) (mmHg)","PARAMN":1,"ADT":"2013-02-12","ADY":1,"AVISIT":"Baseline","AVISITN":0,"AVAL":151,"AVALU":"mmHg","BASE":151,"CHG":null,"PCHG":null,"ABLFL":"Y","TRT01A":"Placebo","TRT01AN":1,"SAFFL":"Y","ITTFL":"Y","SITEID":"701","AGE":85,"SEX":"F","RACE":"WHITE","ARMCD":"Pbo","TRTSDT":"2013-02-12","TRTEDT":"2013-03-09"},{"STUDYID":"CDISCPILOT01","USUBJID":"01-701-1047","DOMAIN":"ADVS","PARAMCD":"SYSBP","PARAM":"Systolic Blood Pressure (Supine) (mmHg)","PARAMN":1,"ADT":"2013-02-25","ADY":14,"AVISIT":"Week 2","AVISITN":2,"AVAL":145,"AVALU":"mmHg","BASE":151,"CHG":-6,"PCHG":-3.9735,"ABLFL":"Y","TRT01A":"Placebo","TRT01AN":1,"SAFFL":"Y","ITTFL":"Y","SITEID":"701","AGE":85,"SEX":"F","RACE":"WHITE","ARMCD":"Pbo","TRTSDT":"2013-02-12","TRTEDT":"2013-03-09"},{"STUDYID":"CDISCPILOT01","USUBJID":"01-701-1047","DOMAIN":"ADVS","PARAMCD":"SYSBP","PARAM":"Systolic Blood Pressure (Supine) (mmHg)","PARAMN":1,"ADT":"2013-03-10","ADY":27,"AVISIT":"Week 4","AVISITN":4,"AVAL":135,"AVALU":"mmHg","BASE":151,"CHG":-16,"PCHG":-10.596,"ABLFL":"Y","TRT01A":"Placebo","TRT01AN":1,"SAFFL":"Y","ITTFL":"Y","SITEID":"701","AGE":85,"SEX":"F","RACE":"WHITE","ARMCD":"Pbo","TRTSDT":"2013-02-12","TRTEDT":"2013-03-09"},{"STUDYID":"CDISCPILOT01","USUBJID":"01-701-1047","DOMAIN":"ADVS","PARAMCD":"SYSBP","PARAM":"Systolic Blood Pressure (Supine) (mmHg)","PARAMN":1,"ADT":"2013-07-28","ADY":167,"AVISIT":"Week 24","AVISITN":24,"AVAL":139,"AVALU":"mmHg","BASE":151,"CHG":-12,"PCHG":-7.947,"ABLFL":"Y","TRT01A":"Placebo","TRT01AN":1,"SAFFL":"Y","ITTFL":"Y","SITEID":"701","AGE":85,"SEX":"F","RACE":"WHITE","ARMCD":"Pbo","TRTSDT":"2013-02-12","TRTEDT":"2013-03-09"},{"STUDYID":"CDISCPILOT01","USUBJID":"01-701-1047","DOMAIN":"ADVS","PARAMCD":"VSSBPST","PARAM":"Systolic Blood Pressure (Standing) (mmHg)","PARAMN":2,"ADT":"2013-01-22","ADY":-21,"AVISIT":"Screening","AVISITN":-2,"AVAL":162,"AVALU":"mmHg","BASE":145,"CHG":null,"PCHG":null,"ABLFL":"Y","TRT01A":"Placebo","TRT01AN":1,"SAFFL":"Y","ITTFL":"Y","SITEID":"701","AGE":85,"SEX":"F","RACE":"WHITE","ARMCD":"Pbo","TRTSDT":"2013-02-12","TRTEDT":"2013-03-09"},{"STUDYID":"CDISCPILOT01","USUBJID":"01-701-1047","DOMAIN":"ADVS","PARAMCD":"VSSBPST","PARAM":"Systolic Blood Pressure (Standing) (mmHg)","PARAMN":2,"ADT":"2013-02-12","ADY":1,"AVISIT":"Baseline","AVISITN":0,"AVAL":145,"AVALU":"mmHg","BASE":145,"CHG":null,"PCHG":null,"ABLFL":"Y","TRT01A":"Placebo","TRT01AN":1,"SAFFL":"Y","ITTFL":"Y","SITEID":"701","AGE":85,"SEX":"F","RACE":"WHITE","ARMCD":"Pbo","TRTSDT":"2013-02-12","TRTEDT":"2013-03-09"},{"STUDYID":"CDISCPILOT01","USUBJID":"01-701-1047","DOMAIN":"ADVS","PARAMCD":"VSSBPST","PARAM":"Systolic Blood Pressure (Standing) (mmHg)","PARAMN":2,"ADT":"2013-02-25","ADY":14,"AVISIT":"Week 2","AVISITN":2,"AVAL":146,"AVALU":"mmHg","BASE":145,"CHG":1,"PCHG":0.6897,"ABLFL":"Y","TRT01A":"Placebo","TRT01AN":1,"SAFFL":"Y","ITTFL":"Y","SITEID":"701","AGE":85,"SEX":"F","RACE":"WHITE","ARMCD":"Pbo","TRTSDT":"2013-02-12","TRTEDT":"2013-03-09"},{"STUDYID":"CDISCPILOT01","USUBJID":"01-701-1047","DOMAIN":"ADVS","PARAMCD":"VSSBPST","PARAM":"Systolic Blood Pressure (Standing) (mmHg)","PARAMN":2,"ADT":"2013-03-10","ADY":27,"AVISIT":"Week 4","AVISITN":4,"AVAL":145,"AVALU":"mmHg","BASE":145,"CHG":0,"PCHG":0,"ABLFL":"Y","TRT01A":"Placebo","TRT01AN":1,"SAFFL":"Y","ITTFL":"Y","SITEID":"701","AGE":85,"SEX":"F","RACE":"WHITE","ARMCD":"Pbo","TRTSDT":"2013-02-12","TRTEDT":"2013-03-09"},{"STUDYID":"CDISCPILOT01","USUBJID":"01-701-1047","DOMAIN":"ADVS","PARAMCD":"VSSBPST","PARAM":"Systolic Blood Pressure (Standing) (mmHg)","PARAMN":2,"ADT":"2013-07-28","ADY":167,"AVISIT":"Week 24","AVISITN":24,"AVAL":130,"AVALU":"mmHg","BASE":145,"CHG":-15,"PCHG":-10.3448,"ABLFL":"Y","TRT01A":"Placebo","TRT01AN":1,"SAFFL":"Y","ITTFL":"Y","SITEID":"701","AGE":85,"SEX":"F","RACE":"WHITE","ARMCD":"Pbo","TRTSDT":"2013-02-12","TRTEDT":"2013-03-09"},{"STUDYID":"CDISCPILOT01","USUBJID":"01-701-1047","DOMAIN":"ADVS","PARAMCD":"DIABP","PARAM":"Diastolic Blood Pressure (Supine) (mmHg)","PARAMN":3,"ADT":"2013-01-22","ADY":-21,"AVISIT":"Screening","AVISITN":-2,"AVAL":68,"AVALU":"mmHg","BASE":61,"CHG":null,"PCHG":null,"ABLFL":"Y","TRT01A":"Placebo","TRT01AN":1,"SAFFL":"Y","ITTFL":"Y","SITEID":"701","AGE":85,"SEX":"F","RACE":"WHITE","ARMCD":"Pbo","TRTSDT":"2013-02-12","TRTEDT":"2013-03-09"},{"STUDYID":"CDISCPILOT01","USUBJID":"01-701-1047","DOMAIN":"ADVS","PARAMCD":"DIABP","PARAM":"Diastolic Blood Pressure (Supine) (mmHg)","PARAMN":3,"ADT":"2013-02-12","ADY":1,"AVISIT":"Baseline","AVISITN":0,"AVAL":61,"AVALU":"mmHg","BASE":61,"CHG":null,"PCHG":null,"ABLFL":"Y","TRT01A":"Placebo","TRT01AN":1,"SAFFL":"Y","ITTFL":"Y","SITEID":"701","AGE":85,"SEX":"F","RACE":"WHITE","ARMCD":"Pbo","TRTSDT":"2013-02-12","TRTEDT":"2013-03-09"},{"STUDYID":"CDISCPILOT01","USUBJID":"01-701-1047","DOMAIN":"ADVS","PARAMCD":"DIABP","PARAM":"Diastolic Blood Pressure (Supine) (mmHg)","PARAMN":3,"ADT":"2013-02-25","ADY":14,"AVISIT":"Week 2","AVISITN":2,"AVAL":72,"AVALU":"mmHg","BASE":61,"CHG":11,"PCHG":18.0328,"ABLFL":"Y","TRT01A":"Placebo","TRT01AN":1,"SAFFL":"Y","ITTFL":"Y","SITEID":"701","AGE":85,"SEX":"F","RACE":"WHITE","ARMCD":"Pbo","TRTSDT":"2013-02-12","TRTEDT":"2013-03-09"},{"STUDYID":"CDISCPILOT01","USUBJID":"01-701-1047","DOMAIN":"ADVS","PARAMCD":"DIABP","PARAM":"Diastolic Blood Pressure (Supine) (mmHg)","PARAMN":3,"ADT":"2013-03-10","ADY":27,"AVISIT":"Week 4","AVISITN":4,"AVAL":72,"AVALU":"mmHg","BASE":61,"CHG":11,"PCHG":18.0328,"ABLFL":"Y","TRT01A":"Placebo","TRT01AN":1,"SAFFL":"Y","ITTFL":"Y","SITEID":"701","AGE":85,"SEX":"F","RACE":"WHITE","ARMCD":"Pbo","TRTSDT":"2013-02-12","TRTEDT":"2013-03-09"},{"STUDYID":"CDISCPILOT01","USUBJID":"01-701-1047","DOMAIN":"ADVS","PARAMCD":"DIABP","PARAM":"Diastolic Blood Pressure (Supine) (mmHg)","PARAMN":3,"ADT":"2013-07-28","ADY":167,"AVISIT":"Week 24","AVISITN":24,"AVAL":76,"AVALU":"mmHg","BASE":61,"CHG":15,"PCHG":24.5902,"ABLFL":"Y","TRT01A":"Placebo","TRT01AN":1,"SAFFL":"Y","ITTFL":"Y","SITEID":"701","AGE":85,"SEX":"F","RACE":"WHITE","ARMCD":"Pbo","TRTSDT":"2013-02-12","TRTEDT":"2013-03-09"},{"STUDYID":"CDISCPILOT01","USUBJID":"01-701-1047","DOMAIN":"ADVS","PARAMCD":"VSDBPST","PARAM":"Diastolic Blood Pressure (Standing) (mmHg)","PARAMN":4,"ADT":"2013-01-22","ADY":-21,"AVISIT":"Screening","AVISITN":-2,"AVAL":71,"AVALU":"mmHg","BASE":68,"CHG":null,"PCHG":null,"ABLFL":"Y","TRT01A":"Placebo","TRT01AN":1,"SAFFL":"Y","ITTFL":"Y","SITEID":"701","AGE":85,"SEX":"F","RACE":"WHITE","ARMCD":"Pbo","TRTSDT":"2013-02-12","TRTEDT":"2013-03-09"},{"STUDYID":"CDISCPILOT01","USUBJID":"01-701-1047","DOMAIN":"ADVS","PARAMCD":"VSDBPST","PARAM":"Diastolic Blood Pressure (Standing) (mmHg)","PARAMN":4,"ADT":"2013-02-12","ADY":1,"AVISIT":"Baseline","AVISITN":0,"AVAL":68,"AVALU":"mmHg","BASE":68,"CHG":null,"PCHG":null,"ABLFL":"Y","TRT01A":"Placebo","TRT01AN":1,"SAFFL":"Y","ITTFL":"Y","SITEID":"701","AGE":85,"SEX":"F","RACE":"WHITE","ARMCD":"Pbo","TRTSDT":"2013-02-12","TRTEDT":"2013-03-09"},{"STUDYID":"CDISCPILOT01","USUBJID":"01-701-1047","DOMAIN":"ADVS","PARAMCD":"VSDBPST","PARAM":"Diastolic Blood Pressure (Standing) (mmHg)","PARAMN":4,"ADT":"2013-02-25","ADY":14,"AVISIT":"Week 2","AVISITN":2,"AVAL":84,"AVALU":"mmHg","BASE":68,"CHG":16,"PCHG":23.5294,"ABLFL":"Y","TRT01A":"Placebo","TRT01AN":1,"SAFFL":"Y","ITTFL":"Y","SITEID":"701","AGE":85,"SEX":"F","RACE":"WHITE","ARMCD":"Pbo","TRTSDT":"2013-02-12","TRTEDT":"2013-03-09"},{"STUDYID":"CDISCPILOT01","USUBJID":"01-701-1047","DOMAIN":"ADVS","PARAMCD":"VSDBPST","PARAM":"Diastolic Blood Pressure (Standing) (mmHg)","PARAMN":4,"ADT":"2013-03-10","ADY":27,"AVISIT":"Week 4","AVISITN":4,"AVAL":71,"AVALU":"mmHg","BASE":68,"CHG":3,"PCHG":4.4118,"ABLFL":"Y","TRT01A":"Placebo","TRT01AN":1,"SAFFL":"Y","ITTFL":"Y","SITEID":"701","AGE":85,"SEX":"F","RACE":"WHITE","ARMCD":"Pbo","TRTSDT":"2013-02-12","TRTEDT":"2013-03-09"},{"STUDYID":"CDISCPILOT01","USUBJID":"01-701-1047","DOMAIN":"ADVS","PARAMCD":"VSDBPST","PARAM":"Diastolic Blood Pressure (Standing) (mmHg)","PARAMN":4,"ADT":"2013-07-28","ADY":167,"AVISIT":"Week 24","AVISITN":24,"AVAL":71,"AVALU":"mmHg","BASE":68,"CHG":3,"PCHG":4.4118,"ABLFL":"Y","TRT01A":"Placebo","TRT01AN":1,"SAFFL":"Y","ITTFL":"Y","SITEID":"701","AGE":85,"SEX":"F","RACE":"WHITE","ARMCD":"Pbo","TRTSDT":"2013-02-12","TRTEDT":"2013-03-09"},{"STUDYID":"CDISCPILOT01","USUBJID":"01-701-1047","DOMAIN":"ADVS","PARAMCD":"PULSE","PARAM":"Pulse Rate (Supine) (beats/min)","PARAMN":5,"ADT":"2013-01-22","ADY":-21,"AVISIT":"Screening","AVISITN":-2,"AVAL":53,"AVALU":"BEATS/MIN","BASE":58,"CHG":null,"PCHG":null,"ABLFL":"Y","TRT01A":"Placebo","TRT01AN":1,"SAFFL":"Y","ITTFL":"Y","SITEID":"701","AGE":85,"SEX":"F","RACE":"WHITE","ARMCD":"Pbo","TRTSDT":"2013-02-12","TRTEDT":"2013-03-09"},{"STUDYID":"CDISCPILOT01","USUBJID":"01-701-1047","DOMAIN":"ADVS","PARAMCD":"PULSE","PARAM":"Pulse Rate (Supine) (beats/min)","PARAMN":5,"ADT":"2013-02-12","ADY":1,"AVISIT":"Baseline","AVISITN":0,"AVAL":58,"AVALU":"BEATS/MIN","BASE":58,"CHG":null,"PCHG":null,"ABLFL":"Y","TRT01A":"Placebo","TRT01AN":1,"SAFFL":"Y","ITTFL":"Y","SITEID":"701","AGE":85,"SEX":"F","RACE":"WHITE","ARMCD":"Pbo","TRTSDT":"2013-02-12","TRTEDT":"2013-03-09"},{"STUDYID":"CDISCPILOT01","USUBJID":"01-701-1047","DOMAIN":"ADVS","PARAMCD":"PULSE","PARAM":"Pulse Rate (Supine) (beats/min)","PARAMN":5,"ADT":"2013-02-25","ADY":14,"AVISIT":"Week 2","AVISITN":2,"AVAL":66,"AVALU":"BEATS/MIN","BASE":58,"CHG":8,"PCHG":13.7931,"ABLFL":"Y","TRT01A":"Placebo","TRT01AN":1,"SAFFL":"Y","ITTFL":"Y","SITEID":"701","AGE":85,"SEX":"F","RACE":"WHITE","ARMCD":"Pbo","TRTSDT":"2013-02-12","TRTEDT":"2013-03-09"},{"STUDYID":"CDISCPILOT01","USUBJID":"01-701-1047","DOMAIN":"ADVS","PARAMCD":"PULSE","PARAM":"Pulse Rate (Supine) (beats/min)","PARAMN":5,"ADT":"2013-03-10","ADY":27,"AVISIT":"Week 4","AVISITN":4,"AVAL":69,"AVALU":"BEATS/MIN","BASE":58,"CHG":11,"PCHG":18.9655,"ABLFL":"Y","TRT01A":"Placebo","TRT01AN":1,"SAFFL":"Y","ITTFL":"Y","SITEID":"701","AGE":85,"SEX":"F","RACE":"WHITE","ARMCD":"Pbo","TRTSDT":"2013-02-12","TRTEDT":"2013-03-09"},{"STUDYID":"CDISCPILOT01","USUBJID":"01-701-1047","DOMAIN":"ADVS","PARAMCD":"PULSE","PARAM":"Pulse Rate (Supine) (beats/min)","PARAMN":5,"ADT":"2013-07-28","ADY":167,"AVISIT":"Week 24","AVISITN":24,"AVAL":58,"AVALU":"BEATS/MIN","BASE":58,"CHG":0,"PCHG":0,"ABLFL":"Y","TRT01A":"Placebo","TRT01AN":1,"SAFFL":"Y","ITTFL":"Y","SITEID":"701","AGE":85,"SEX":"F","RACE":"WHITE","ARMCD":"Pbo","TRTSDT":"2013-02-12","TRTEDT":"2013-03-09"},{"STUDYID":"CDISCPILOT01","USUBJID":"01-701-1047","DOMAIN":"ADVS","PARAMCD":"VSPULST","PARAM":"Pulse Rate (Standing) (beats/min)","PARAMN":6,"ADT":"2013-01-22","ADY":-21,"AVISIT":"Screening","AVISITN":-2,"AVAL":64,"AVALU":"BEATS/MIN","BASE":67,"CHG":null,"PCHG":null,"ABLFL":"Y","TRT01A":"Placebo","TRT01AN":1,"SAFFL":"Y","ITTFL":"Y","SITEID":"701","AGE":85,"SEX":"F","RACE":"WHITE","ARMCD":"Pbo","TRTSDT":"2013-02-12","TRTEDT":"2013-03-09"},{"STUDYID":"CDISCPILOT01","USUBJID":"01-701-1047","DOMAIN":"ADVS","PARAMCD":"VSPULST","PARAM":"Pulse Rate (Standing) (beats/min)","PARAMN":6,"ADT":"2013-02-12","ADY":1,"AVISIT":"Baseline","AVISITN":0,"AVAL":67,"AVALU":"BEATS/MIN","BASE":67,"CHG":null,"PCHG":null,"ABLFL":"Y","TRT01A":"Placebo","TRT01AN":1,"SAFFL":"Y","ITTFL":"Y","SITEID":"701","AGE":85,"SEX":"F","RACE":"WHITE","ARMCD":"Pbo","TRTSDT":"2013-02-12","TRTEDT":"2013-03-09"},{"STUDYID":"CDISCPILOT01","USUBJID":"01-701-1047","DOMAIN":"ADVS","PARAMCD":"VSPULST","PARAM":"Pulse Rate (Standing) (beats/min)","PARAMN":6,"ADT":"2013-02-25","ADY":14,"AVISIT":"Week 2","AVISITN":2,"AVAL":75,"AVALU":"BEATS/MIN","BASE":67,"CHG":8,"PCHG":11.9403,"ABLFL":"Y","TRT01A":"Placebo","TRT01AN":1,"SAFFL":"Y","ITTFL":"Y","SITEID":"701","AGE":85,"SEX":"F","RACE":"WHITE","ARMCD":"Pbo","TRTSDT":"2013-02-12","TRTEDT":"2013-03-09"},{"STUDYID":"CDISCPILOT01","USUBJID":"01-701-1047","DOMAIN":"ADVS","PARAMCD":"VSPULST","PARAM":"Pulse Rate (Standing) (beats/min)","PARAMN":6,"ADT":"2013-03-10","ADY":27,"AVISIT":"Week 4","AVISITN":4,"AVAL":64,"AVALU":"BEATS/MIN","BASE":67,"CHG":-3,"PCHG":-4.4776,"ABLFL":"Y","TRT01A":"Placebo","TRT01AN":1,"SAFFL":"Y","ITTFL":"Y","SITEID":"701","AGE":85,"SEX":"F","RACE":"WHITE","ARMCD":"Pbo","TRTSDT":"2013-02-12","TRTEDT":"2013-03-09"},{"STUDYID":"CDISCPILOT01","USUBJID":"01-701-1047","DOMAIN":"ADVS","PARAMCD":"VSPULST","PARAM":"Pulse Rate (Standing) (beats/min)","PARAMN":6,"ADT":"2013-07-28","ADY":167,"AVISIT":"Week 24","AVISITN":24,"AVAL":72,"AVALU":"BEATS/MIN","BASE":67,"CHG":5,"PCHG":7.4627,"ABLFL":"Y","TRT01A":"Placebo","TRT01AN":1,"SAFFL":"Y","ITTFL":"Y","SITEID":"701","AGE":85,"SEX":"F","RACE":"WHITE","ARMCD":"Pbo","TRTSDT":"2013-02-12","TRTEDT":"2013-03-09"},{"STUDYID":"CDISCPILOT01","USUBJID":"01-701-1047","DOMAIN":"ADVS","PARAMCD":"WEIGHT","PARAM":"Weight (kg)","PARAMN":7,"ADT":"2013-01-22","ADY":-21,"AVISIT":"Screening","AVISITN":-2,"AVAL":66.23,"AVALU":"kg","BASE":67.13,"CHG":null,"PCHG":null,"ABLFL":"Y","TRT01A":"Placebo","TRT01AN":1,"SAFFL":"Y","ITTFL":"Y","SITEID":"701","AGE":85,"SEX":"F","RACE":"WHITE","ARMCD":"Pbo","TRTSDT":"2013-02-12","TRTEDT":"2013-03-09"},{"STUDYID":"CDISCPILOT01","USUBJID":"01-701-1047","DOMAIN":"ADVS","PARAMCD":"WEIGHT","PARAM":"Weight (kg)","PARAMN":7,"ADT":"2013-02-12","ADY":1,"AVISIT":"Baseline","AVISITN":0,"AVAL":67.13,"AVALU":"kg","BASE":67.13,"CHG":null,"PCHG":null,"ABLFL":"Y","TRT01A":"Placebo","TRT01AN":1,"SAFFL":"Y","ITTFL":"Y","SITEID":"701","AGE":85,"SEX":"F","RACE":"WHITE","ARMCD":"Pbo","TRTSDT":"2013-02-12","TRTEDT":"2013-03-09"},{"STUDYID":"CDISCPILOT01","USUBJID":"01-701-1047","DOMAIN":"ADVS","PARAMCD":"WEIGHT","PARAM":"Weight (kg)","PARAMN":7,"ADT":"2013-02-25","ADY":14,"AVISIT":"Week 2","AVISITN":2,"AVAL":67.59,"AVALU":"kg","BASE":67.13,"CHG":0.46,"PCHG":0.6852,"ABLFL":"Y","TRT01A":"Placebo","TRT01AN":1,"SAFFL":"Y","ITTFL":"Y","SITEID":"701","AGE":85,"SEX":"F","RACE":"WHITE","ARMCD":"Pbo","TRTSDT":"2013-02-12","TRTEDT":"2013-03-09"},{"STUDYID":"CDISCPILOT01","USUBJID":"01-701-1047","DOMAIN":"ADVS","PARAMCD":"WEIGHT","PARAM":"Weight (kg)","PARAMN":7,"ADT":"2013-03-10","ADY":27,"AVISIT":"Week 4","AVISITN":4,"AVAL":67.59,"AVALU":"kg","BASE":67.13,"CHG":0.46,"PCHG":0.6852,"ABLFL":"Y","TRT01A":"Placebo","TRT01AN":1,"SAFFL":"Y","ITTFL":"Y","SITEID":"701","AGE":85,"SEX":"F","RACE":"WHITE","ARMCD":"Pbo","TRTSDT":"2013-02-12","TRTEDT":"2013-03-09"},{"STUDYID":"CDISCPILOT01","USUBJID":"01-701-1047","DOMAIN":"ADVS","PARAMCD":"HEIGHT","PARAM":"Height (cm)","PARAMN":8,"ADT":"2013-01-22","ADY":-21,"AVISIT":"Screening","AVISITN":-2,"AVAL":148.59,"AVALU":"cm","BASE":148.59,"CHG":null,"PCHG":null,"ABLFL":"Y","TRT01A":"Placebo","TRT01AN":1,"SAFFL":"Y","ITTFL":"Y","SITEID":"701","AGE":85,"SEX":"F","RACE":"WHITE","ARMCD":"Pbo","TRTSDT":"2013-02-12","TRTEDT":"2013-03-09"},{"STUDYID":"CDISCPILOT01","USUBJID":"01-701-1047","DOMAIN":"ADVS","PARAMCD":"TEMP","PARAM":"Temperature (C)","PARAMN":9,"ADT":"2013-02-12","ADY":1,"AVISIT":"Baseline","AVISITN":0,"AVAL":36.39,"AVALU":"C","BASE":36.39,"CHG":null,"PCHG":null,"ABLFL":"Y","TRT01A":"Placebo","TRT01AN":1,"SAFFL":"Y","ITTFL":"Y","SITEID":"701","AGE":85,"SEX":"F","RACE":"WHITE","ARMCD":"Pbo","TRTSDT":"2013-02-12","TRTEDT":"2013-03-09"},{"STUDYID":"CDISCPILOT01","USUBJID":"01-701-1047","DOMAIN":"ADVS","PARAMCD":"TEMP","PARAM":"Temperature (C)","PARAMN":9,"ADT":"2013-02-25","ADY":14,"AVISIT":"Week 2","AVISITN":2,"AVAL":37.17,"AVALU":"C","BASE":36.39,"CHG":0.78,"PCHG":2.1434,"ABLFL":"Y","TRT01A":"Placebo","TRT01AN":1,"SAFFL":"Y","ITTFL":"Y","SITEID":"701","AGE":85,"SEX":"F","RACE":"WHITE","ARMCD":"Pbo","TRTSDT":"2013-02-12","TRTEDT":"2013-03-09"},{"STUDYID":"CDISCPILOT01","USUBJID":"01-701-1047","DOMAIN":"ADVS","PARAMCD":"TEMP","PARAM":"Temperature (C)","PARAMN":9,"ADT":"2013-03-10","ADY":27,"AVISIT":"Week 4","AVISITN":4,"AVAL":36.56,"AVALU":"C","BASE":36.39,"CHG":0.17,"PCHG":0.4672,"ABLFL":"Y","TRT01A":"Placebo","TRT01AN":1,"SAFFL":"Y","ITTFL":"Y","SITEID":"701","AGE":85,"SEX":"F","RACE":"WHITE","ARMCD":"Pbo","TRTSDT":"2013-02-12","TRTEDT":"2013-03-09"},{"STUDYID":"CDISCPILOT01","USUBJID":"01-701-1047","DOMAIN":"ADVS","PARAMCD":"TEMP","PARAM":"Temperature (C)","PARAMN":9,"ADT":"2013-07-28","ADY":167,"AVISIT":"Week 24","AVISITN":24,"AVAL":36.89,"AVALU":"C","BASE":36.39,"CHG":0.5,"PCHG":1.374,"ABLFL":"Y","TRT01A":"Placebo","TRT01AN":1,"SAFFL":"Y","ITTFL":"Y","SITEID":"701","AGE":85,"SEX":"F","RACE":"WHITE","ARMCD":"Pbo","TRTSDT":"2013-02-12","TRTEDT":"2013-03-09"},{"STUDYID":"CDISCPILOT01","USUBJID":"01-701-1097","DOMAIN":"ADVS","PARAMCD":"SYSBP","PARAM":"Systolic Blood Pressure (Supine) (mmHg)","PARAMN":1,"ADT":"2013-12-23","ADY":-9,"AVISIT":"Screening","AVISITN":-2,"AVAL":138,"AVALU":"mmHg","BASE":128,"CHG":null,"PCHG":null,"ABLFL":"Y","TRT01A":"Xanomeline Low Dose","TRT01AN":2,"SAFFL":"Y","ITTFL":"Y","SITEID":"701","AGE":68,"SEX":"M","RACE":"WHITE","ARMCD":"Xan_Lo","TRTSDT":"2014-01-01","TRTEDT":"2014-07-09"},{"STUDYID":"CDISCPILOT01","USUBJID":"01-701-1097","DOMAIN":"ADVS","PARAMCD":"SYSBP","PARAM":"Systolic Blood Pressure (Supine) (mmHg)","PARAMN":1,"ADT":"2014-01-01","ADY":1,"AVISIT":"Baseline","AVISITN":0,"AVAL":128,"AVALU":"mmHg","BASE":128,"CHG":null,"PCHG":null,"ABLFL":"Y","TRT01A":"Xanomeline Low Dose","TRT01AN":2,"SAFFL":"Y","ITTFL":"Y","SITEID":"701","AGE":68,"SEX":"M","RACE":"WHITE","ARMCD":"Xan_Lo","TRTSDT":"2014-01-01","TRTEDT":"2014-07-09"},{"STUDYID":"CDISCPILOT01","USUBJID":"01-701-1097","DOMAIN":"ADVS","PARAMCD":"SYSBP","PARAM":"Systolic Blood Pressure (Supine) (mmHg)","PARAMN":1,"ADT":"2014-01-15","ADY":15,"AVISIT":"Week 2","AVISITN":2,"AVAL":124,"AVALU":"mmHg","BASE":128,"CHG":-4,"PCHG":-3.125,"ABLFL":"Y","TRT01A":"Xanomeline Low Dose","TRT01AN":2,"SAFFL":"Y","ITTFL":"Y","SITEID":"701","AGE":68,"SEX":"M","RACE":"WHITE","ARMCD":"Xan_Lo","TRTSDT":"2014-01-01","TRTEDT":"2014-07-09"},{"STUDYID":"CDISCPILOT01","USUBJID":"01-701-1097","DOMAIN":"ADVS","PARAMCD":"SYSBP","PARAM":"Systolic Blood Pressure (Supine) (mmHg)","PARAMN":1,"ADT":"2014-01-29","ADY":29,"AVISIT":"Week 4","AVISITN":4,"AVAL":137,"AVALU":"mmHg","BASE":128,"CHG":9,"PCHG":7.0312,"ABLFL":"Y","TRT01A":"Xanomeline Low Dose","TRT01AN":2,"SAFFL":"Y","ITTFL":"Y","SITEID":"701","AGE":68,"SEX":"M","RACE":"WHITE","ARMCD":"Xan_Lo","TRTSDT":"2014-01-01","TRTEDT":"2014-07-09"},{"STUDYID":"CDISCPILOT01","USUBJID":"01-701-1097","DOMAIN":"ADVS","PARAMCD":"SYSBP","PARAM":"Systolic Blood Pressure (Supine) (mmHg)","PARAMN":1,"ADT":"2014-02-11","ADY":42,"AVISIT":"Week 6","AVISITN":6,"AVAL":122,"AVALU":"mmHg","BASE":128,"CHG":-6,"PCHG":-4.6875,"ABLFL":"Y","TRT01A":"Xanomeline Low Dose","TRT01AN":2,"SAFFL":"Y","ITTFL":"Y","SITEID":"701","AGE":68,"SEX":"M","RACE":"WHITE","ARMCD":"Xan_Lo","TRTSDT":"2014-01-01","TRTEDT":"2014-07-09"},{"STUDYID":"CDISCPILOT01","USUBJID":"01-701-1097","DOMAIN":"ADVS","PARAMCD":"SYSBP","PARAM":"Systolic Blood Pressure (Supine) (mmHg)","PARAMN":1,"ADT":"2014-02-26","ADY":57,"AVISIT":"Week 8","AVISITN":8,"AVAL":136,"AVALU":"mmHg","BASE":128,"CHG":8,"PCHG":6.25,"ABLFL":"Y","TRT01A":"Xanomeline Low Dose","TRT01AN":2,"SAFFL":"Y","ITTFL":"Y","SITEID":"701","AGE":68,"SEX":"M","RACE":"WHITE","ARMCD":"Xan_Lo","TRTSDT":"2014-01-01","TRTEDT":"2014-07-09"},{"STUDYID":"CDISCPILOT01","USUBJID":"01-701-1097","DOMAIN":"ADVS","PARAMCD":"SYSBP","PARAM":"Systolic Blood Pressure (Supine) (mmHg)","PARAMN":1,"ADT":"2014-03-26","ADY":85,"AVISIT":"Week 12","AVISITN":12,"AVAL":121,"AVALU":"mmHg","BASE":128,"CHG":-7,"PCHG":-5.4688,"ABLFL":"Y","TRT01A":"Xanomeline Low Dose","TRT01AN":2,"SAFFL":"Y","ITTFL":"Y","SITEID":"701","AGE":68,"SEX":"M","RACE":"WHITE","ARMCD":"Xan_Lo","TRTSDT":"2014-01-01","TRTEDT":"2014-07-09"},{"STUDYID":"CDISCPILOT01","USUBJID":"01-701-1097","DOMAIN":"ADVS","PARAMCD":"SYSBP","PARAM":"Systolic Blood Pressure (Supine) (mmHg)","PARAMN":1,"ADT":"2014-04-23","ADY":113,"AVISIT":"Week 16","AVISITN":16,"AVAL":132,"AVALU":"mmHg","BASE":128,"CHG":4,"PCHG":3.125,"ABLFL":"Y","TRT01A":"Xanomeline Low Dose","TRT01AN":2,"SAFFL":"Y","ITTFL":"Y","SITEID":"701","AGE":68,"SEX":"M","RACE":"WHITE","ARMCD":"Xan_Lo","TRTSDT":"2014-01-01","TRTEDT":"2014-07-09"},{"STUDYID":"CDISCPILOT01","USUBJID":"01-701-1097","DOMAIN":"ADVS","PARAMCD":"SYSBP","PARAM":"Systolic Blood Pressure (Supine) (mmHg)","PARAMN":1,"ADT":"2014-05-21","ADY":141,"AVISIT":"Week 20","AVISITN":20,"AVAL":121,"AVALU":"mmHg","BASE":128,"CHG":-7,"PCHG":-5.4688,"ABLFL":"Y","TRT01A":"Xanomeline Low Dose","TRT01AN":2,"SAFFL":"Y","ITTFL":"Y","SITEID":"701","AGE":68,"SEX":"M","RACE":"WHITE","ARMCD":"Xan_Lo","TRTSDT":"2014-01-01","TRTEDT":"2014-07-09"},{"STUDYID":"CDISCPILOT01","USUBJID":"01-701-1097","DOMAIN":"ADVS","PARAMCD":"SYSBP","PARAM":"Systolic Blood Pressure (Supine) (mmHg)","PARAMN":1,"ADT":"2014-06-18","ADY":169,"AVISIT":"Week 24","AVISITN":24,"AVAL":137,"AVALU":"mmHg","BASE":128,"CHG":9,"PCHG":7.0312,"ABLFL":"Y","TRT01A":"Xanomeline Low Dose","TRT01AN":2,"SAFFL":"Y","ITTFL":"Y","SITEID":"701","AGE":68,"SEX":"M","RACE":"WHITE","ARMCD":"Xan_Lo","TRTSDT":"2014-01-01","TRTEDT":"2014-07-09"},{"STUDYID":"CDISCPILOT01","USUBJID":"01-701-1097","DOMAIN":"ADVS","PARAMCD":"SYSBP","PARAM":"Systolic Blood Pressure (Supine) (mmHg)","PARAMN":1,"ADT":"2014-07-09","ADY":190,"AVISIT":"Week 26","AVISITN":26,"AVAL":123,"AVALU":"mmHg","BASE":128,"CHG":-5,"PCHG":-3.9062,"ABLFL":"Y","TRT01A":"Xanomeline Low Dose","TRT01AN":2,"SAFFL":"Y","ITTFL":"Y","SITEID":"701","AGE":68,"SEX":"M","RACE":"WHITE","ARMCD":"Xan_Lo","TRTSDT":"2014-01-01","TRTEDT":"2014-07-09"},{"STUDYID":"CDISCPILOT01","USUBJID":"01-701-1097","DOMAIN":"ADVS","PARAMCD":"VSSBPST","PARAM":"Systolic Blood Pressure (Standing) (mmHg)","PARAMN":2,"ADT":"2013-12-23","ADY":-9,"AVISIT":"Screening","AVISITN":-2,"AVAL":137,"AVALU":"mmHg","BASE":130,"CHG":null,"PCHG":null,"ABLFL":"Y","TRT01A":"Xanomeline Low Dose","TRT01AN":2,"SAFFL":"Y","ITTFL":"Y","SITEID":"701","AGE":68,"SEX":"M","RACE":"WHITE","ARMCD":"Xan_Lo","TRTSDT":"2014-01-01","TRTEDT":"2014-07-09"},{"STUDYID":"CDISCPILOT01","USUBJID":"01-701-1097","DOMAIN":"ADVS","PARAMCD":"VSSBPST","PARAM":"Systolic Blood Pressure (Standing) (mmHg)","PARAMN":2,"ADT":"2014-01-01","ADY":1,"AVISIT":"Baseline","AVISITN":0,"AVAL":130,"AVALU":"mmHg","BASE":130,"CHG":null,"PCHG":null,"ABLFL":"Y","TRT01A":"Xanomeline Low Dose","TRT01AN":2,"SAFFL":"Y","ITTFL":"Y","SITEID":"701","AGE":68,"SEX":"M","RACE":"WHITE","ARMCD":"Xan_Lo","TRTSDT":"2014-01-01","TRTEDT":"2014-07-09"},{"STUDYID":"CDISCPILOT01","USUBJID":"01-701-1097","DOMAIN":"ADVS","PARAMCD":"VSSBPST","PARAM":"Systolic Blood Pressure (Standing) (mmHg)","PARAMN":2,"ADT":"2014-01-15","ADY":15,"AVISIT":"Week 2","AVISITN":2,"AVAL":130,"AVALU":"mmHg","BASE":130,"CHG":0,"PCHG":0,"ABLFL":"Y","TRT01A":"Xanomeline Low Dose","TRT01AN":2,"SAFFL":"Y","ITTFL":"Y","SITEID":"701","AGE":68,"SEX":"M","RACE":"WHITE","ARMCD":"Xan_Lo","TRTSDT":"2014-01-01","TRTEDT":"2014-07-09"},{"STUDYID":"CDISCPILOT01","USUBJID":"01-701-1097","DOMAIN":"ADVS","PARAMCD":"VSSBPST","PARAM":"Systolic Blood Pressure (Standing) (mmHg)","PARAMN":2,"ADT":"2014-01-29","ADY":29,"AVISIT":"Week 4","AVISITN":4,"AVAL":134,"AVALU":"mmHg","BASE":130,"CHG":4,"PCHG":3.0769,"ABLFL":"Y","TRT01A":"Xanomeline Low Dose","TRT01AN":2,"SAFFL":"Y","ITTFL":"Y","SITEID":"701","AGE":68,"SEX":"M","RACE":"WHITE","ARMCD":"Xan_Lo","TRTSDT":"2014-01-01","TRTEDT":"2014-07-09"},{"STUDYID":"CDISCPILOT01","USUBJID":"01-701-1097","DOMAIN":"ADVS","PARAMCD":"VSSBPST","PARAM":"Systolic Blood Pressure (Standing) (mmHg)","PARAMN":2,"ADT":"2014-02-11","ADY":42,"AVISIT":"Week 6","AVISITN":6,"AVAL":124,"AVALU":"mmHg","BASE":130,"CHG":-6,"PCHG":-4.6154,"ABLFL":"Y","TRT01A":"Xanomeline Low Dose","TRT01AN":2,"SAFFL":"Y","ITTFL":"Y","SITEID":"701","AGE":68,"SEX":"M","RACE":"WHITE","ARMCD":"Xan_Lo","TRTSDT":"2014-01-01","TRTEDT":"2014-07-09"},{"STUDYID":"CDISCPILOT01","USUBJID":"01-701-1097","DOMAIN":"ADVS","PARAMCD":"VSSBPST","PARAM":"Systolic Blood Pressure (Standing) (mmHg)","PARAMN":2,"ADT":"2014-02-26","ADY":57,"AVISIT":"Week 8","AVISITN":8,"AVAL":130,"AVALU":"mmHg","BASE":130,"CHG":0,"PCHG":0,"ABLFL":"Y","TRT01A":"Xanomeline Low Dose","TRT01AN":2,"SAFFL":"Y","ITTFL":"Y","SITEID":"701","AGE":68,"SEX":"M","RACE":"WHITE","ARMCD":"Xan_Lo","TRTSDT":"2014-01-01","TRTEDT":"2014-07-09"},{"STUDYID":"CDISCPILOT01","USUBJID":"01-701-1097","DOMAIN":"ADVS","PARAMCD":"VSSBPST","PARAM":"Systolic Blood Pressure (Standing) (mmHg)","PARAMN":2,"ADT":"2014-03-26","ADY":85,"AVISIT":"Week 12","AVISITN":12,"AVAL":132,"AVALU":"mmHg","BASE":130,"CHG":2,"PCHG":1.5385,"ABLFL":"Y","TRT01A":"Xanomeline Low Dose","TRT01AN":2,"SAFFL":"Y","ITTFL":"Y","SITEID":"701","AGE":68,"SEX":"M","RACE":"WHITE","ARMCD":"Xan_Lo","TRTSDT":"2014-01-01","TRTEDT":"2014-07-09"},{"STUDYID":"CDISCPILOT01","USUBJID":"01-701-1097","DOMAIN":"ADVS","PARAMCD":"VSSBPST","PARAM":"Systolic Blood Pressure (Standing) (mmHg)","PARAMN":2,"ADT":"2014-04-23","ADY":113,"AVISIT":"Week 16","AVISITN":16,"AVAL":138,"AVALU":"mmHg","BASE":130,"CHG":8,"PCHG":6.1538,"ABLFL":"Y","TRT01A":"Xanomeline Low Dose","TRT01AN":2,"SAFFL":"Y","ITTFL":"Y","SITEID":"701","AGE":68,"SEX":"M","RACE":"WHITE","ARMCD":"Xan_Lo","TRTSDT":"2014-01-01","TRTEDT":"2014-07-09"},{"STUDYID":"CDISCPILOT01","USUBJID":"01-701-1097","DOMAIN":"ADVS","PARAMCD":"VSSBPST","PARAM":"Systolic Blood Pressure (Standing) (mmHg)","PARAMN":2,"ADT":"2014-05-21","ADY":141,"AVISIT":"Week 20","AVISITN":20,"AVAL":112,"AVALU":"mmHg","BASE":130,"CHG":-18,"PCHG":-13.8462,"ABLFL":"Y","TRT01A":"Xanomeline Low Dose","TRT01AN":2,"SAFFL":"Y","ITTFL":"Y","SITEID":"701","AGE":68,"SEX":"M","RACE":"WHITE","ARMCD":"Xan_Lo","TRTSDT":"2014-01-01","TRTEDT":"2014-07-09"},{"STUDYID":"CDISCPILOT01","USUBJID":"01-701-1097","DOMAIN":"ADVS","PARAMCD":"VSSBPST","PARAM":"Systolic Blood Pressure (Standing) (mmHg)","PARAMN":2,"ADT":"2014-06-18","ADY":169,"AVISIT":"Week 24","AVISITN":24,"AVAL":131,"AVALU":"mmHg","BASE":130,"CHG":1,"PCHG":0.7692,"ABLFL":"Y","TRT01A":"Xanomeline Low Dose","TRT01AN":2,"SAFFL":"Y","ITTFL":"Y","SITEID":"701","AGE":68,"SEX":"M","RACE":"WHITE","ARMCD":"Xan_Lo","TRTSDT":"2014-01-01","TRTEDT":"2014-07-09"},{"STUDYID":"CDISCPILOT01","USUBJID":"01-701-1097","DOMAIN":"ADVS","PARAMCD":"VSSBPST","PARAM":"Systolic Blood Pressure (Standing) (mmHg)","PARAMN":2,"ADT":"2014-07-09","ADY":190,"AVISIT":"Week 26","AVISITN":26,"AVAL":132,"AVALU":"mmHg","BASE":130,"CHG":2,"PCHG":1.5385,"ABLFL":"Y","TRT01A":"Xanomeline Low Dose","TRT01AN":2,"SAFFL":"Y","ITTFL":"Y","SITEID":"701","AGE":68,"SEX":"M","RACE":"WHITE","ARMCD":"Xan_Lo","TRTSDT":"2014-01-01","TRTEDT":"2014-07-09"},{"STUDYID":"CDISCPILOT01","USUBJID":"01-701-1097","DOMAIN":"ADVS","PARAMCD":"DIABP","PARAM":"Diastolic Blood Pressure (Supine) (mmHg)","PARAMN":3,"ADT":"2013-12-23","ADY":-9,"AVISIT":"Screening","AVISITN":-2,"AVAL":72,"AVALU":"mmHg","BASE":72,"CHG":null,"PCHG":null,"ABLFL":"Y","TRT01A":"Xanomeline Low Dose","TRT01AN":2,"SAFFL":"Y","ITTFL":"Y","SITEID":"701","AGE":68,"SEX":"M","RACE":"WHITE","ARMCD":"Xan_Lo","TRTSDT":"2014-01-01","TRTEDT":"2014-07-09"},{"STUDYID":"CDISCPILOT01","USUBJID":"01-701-1097","DOMAIN":"ADVS","PARAMCD":"DIABP","PARAM":"Diastolic Blood Pressure (Supine) (mmHg)","PARAMN":3,"ADT":"2014-01-01","ADY":1,"AVISIT":"Baseline","AVISITN":0,"AVAL":72,"AVALU":"mmHg","BASE":72,"CHG":null,"PCHG":null,"ABLFL":"Y","TRT01A":"Xanomeline Low Dose","TRT01AN":2,"SAFFL":"Y","ITTFL":"Y","SITEID":"701","AGE":68,"SEX":"M","RACE":"WHITE","ARMCD":"Xan_Lo","TRTSDT":"2014-01-01","TRTEDT":"2014-07-09"},{"STUDYID":"CDISCPILOT01","USUBJID":"01-701-1097","DOMAIN":"ADVS","PARAMCD":"DIABP","PARAM":"Diastolic Blood Pressure (Supine) (mmHg)","PARAMN":3,"ADT":"2014-01-15","ADY":15,"AVISIT":"Week 2","AVISITN":2,"AVAL":72,"AVALU":"mmHg","BASE":72,"CHG":0,"PCHG":0,"ABLFL":"Y","TRT01A":"Xanomeline Low Dose","TRT01AN":2,"SAFFL":"Y","ITTFL":"Y","SITEID":"701","AGE":68,"SEX":"M","RACE":"WHITE","ARMCD":"Xan_Lo","TRTSDT":"2014-01-01","TRTEDT":"2014-07-09"},{"STUDYID":"CDISCPILOT01","USUBJID":"01-701-1097","DOMAIN":"ADVS","PARAMCD":"DIABP","PARAM":"Diastolic Blood Pressure (Supine) (mmHg)","PARAMN":3,"ADT":"2014-01-29","ADY":29,"AVISIT":"Week 4","AVISITN":4,"AVAL":71,"AVALU":"mmHg","BASE":72,"CHG":-1,"PCHG":-1.3889,"ABLFL":"Y","TRT01A":"Xanomeline Low Dose","TRT01AN":2,"SAFFL":"Y","ITTFL":"Y","SITEID":"701","AGE":68,"SEX":"M","RACE":"WHITE","ARMCD":"Xan_Lo","TRTSDT":"2014-01-01","TRTEDT":"2014-07-09"},{"STUDYID":"CDISCPILOT01","USUBJID":"01-701-1097","DOMAIN":"ADVS","PARAMCD":"DIABP","PARAM":"Diastolic Blood Pressure (Supine) (mmHg)","PARAMN":3,"ADT":"2014-02-11","ADY":42,"AVISIT":"Week 6","AVISITN":6,"AVAL":68,"AVALU":"mmHg","BASE":72,"CHG":-4,"PCHG":-5.5556,"ABLFL":"Y","TRT01A":"Xanomeline Low Dose","TRT01AN":2,"SAFFL":"Y","ITTFL":"Y","SITEID":"701","AGE":68,"SEX":"M","RACE":"WHITE","ARMCD":"Xan_Lo","TRTSDT":"2014-01-01","TRTEDT":"2014-07-09"},{"STUDYID":"CDISCPILOT01","USUBJID":"01-701-1097","DOMAIN":"ADVS","PARAMCD":"DIABP","PARAM":"Diastolic Blood Pressure (Supine) (mmHg)","PARAMN":3,"ADT":"2014-02-26","ADY":57,"AVISIT":"Week 8","AVISITN":8,"AVAL":75,"AVALU":"mmHg","BASE":72,"CHG":3,"PCHG":4.1667,"ABLFL":"Y","TRT01A":"Xanomeline Low Dose","TRT01AN":2,"SAFFL":"Y","ITTFL":"Y","SITEID":"701","AGE":68,"SEX":"M","RACE":"WHITE","ARMCD":"Xan_Lo","TRTSDT":"2014-01-01","TRTEDT":"2014-07-09"},{"STUDYID":"CDISCPILOT01","USUBJID":"01-701-1097","DOMAIN":"ADVS","PARAMCD":"DIABP","PARAM":"Diastolic Blood Pressure (Supine) (mmHg)","PARAMN":3,"ADT":"2014-03-26","ADY":85,"AVISIT":"Week 12","AVISITN":12,"AVAL":74,"AVALU":"mmHg","BASE":72,"CHG":2,"PCHG":2.7778,"ABLFL":"Y","TRT01A":"Xanomeline Low Dose","TRT01AN":2,"SAFFL":"Y","ITTFL":"Y","SITEID":"701","AGE":68,"SEX":"M","RACE":"WHITE","ARMCD":"Xan_Lo","TRTSDT":"2014-01-01","TRTEDT":"2014-07-09"},{"STUDYID":"CDISCPILOT01","USUBJID":"01-701-1097","DOMAIN":"ADVS","PARAMCD":"DIABP","PARAM":"Diastolic Blood Pressure (Supine) (mmHg)","PARAMN":3,"ADT":"2014-04-23","ADY":113,"AVISIT":"Week 16","AVISITN":16,"AVAL":70,"AVALU":"mmHg","BASE":72,"CHG":-2,"PCHG":-2.7778,"ABLFL":"Y","TRT01A":"Xanomeline Low Dose","TRT01AN":2,"SAFFL":"Y","ITTFL":"Y","SITEID":"701","AGE":68,"SEX":"M","RACE":"WHITE","ARMCD":"Xan_Lo","TRTSDT":"2014-01-01","TRTEDT":"2014-07-09"},{"STUDYID":"CDISCPILOT01","USUBJID":"01-701-1097","DOMAIN":"ADVS","PARAMCD":"DIABP","PARAM":"Diastolic Blood Pressure (Supine) (mmHg)","PARAMN":3,"ADT":"2014-05-21","ADY":141,"AVISIT":"Week 20","AVISITN":20,"AVAL":67,"AVALU":"mmHg","BASE":72,"CHG":-5,"PCHG":-6.9444,"ABLFL":"Y","TRT01A":"Xanomeline Low Dose","TRT01AN":2,"SAFFL":"Y","ITTFL":"Y","SITEID":"701","AGE":68,"SEX":"M","RACE":"WHITE","ARMCD":"Xan_Lo","TRTSDT":"2014-01-01","TRTEDT":"2014-07-09"},{"STUDYID":"CDISCPILOT01","USUBJID":"01-701-1097","DOMAIN":"ADVS","PARAMCD":"DIABP","PARAM":"Diastolic Blood Pressure (Supine) (mmHg)","PARAMN":3,"ADT":"2014-06-18","ADY":169,"AVISIT":"Week 24","AVISITN":24,"AVAL":83,"AVALU":"mmHg","BASE":72,"CHG":11,"PCHG":15.2778,"ABLFL":"Y","TRT01A":"Xanomeline Low Dose","TRT01AN":2,"SAFFL":"Y","ITTFL":"Y","SITEID":"701","AGE":68,"SEX":"M","RACE":"WHITE","ARMCD":"Xan_Lo","TRTSDT":"2014-01-01","TRTEDT":"2014-07-09"},{"STUDYID":"CDISCPILOT01","USUBJID":"01-701-1097","DOMAIN":"ADVS","PARAMCD":"DIABP","PARAM":"Diastolic Blood Pressure (Supine) (mmHg)","PARAMN":3,"ADT":"2014-07-09","ADY":190,"AVISIT":"Week 26","AVISITN":26,"AVAL":72,"AVALU":"mmHg","BASE":72,"CHG":0,"PCHG":0,"ABLFL":"Y","TRT01A":"Xanomeline Low Dose","TRT01AN":2,"SAFFL":"Y","ITTFL":"Y","SITEID":"701","AGE":68,"SEX":"M","RACE":"WHITE","ARMCD":"Xan_Lo","TRTSDT":"2014-01-01","TRTEDT":"2014-07-09"},{"STUDYID":"CDISCPILOT01","USUBJID":"01-701-1097","DOMAIN":"ADVS","PARAMCD":"VSDBPST","PARAM":"Diastolic Blood Pressure (Standing) (mmHg)","PARAMN":4,"ADT":"2013-12-23","ADY":-9,"AVISIT":"Screening","AVISITN":-2,"AVAL":74,"AVALU":"mmHg","BASE":78,"CHG":null,"PCHG":null,"ABLFL":"Y","TRT01A":"Xanomeline Low Dose","TRT01AN":2,"SAFFL":"Y","ITTFL":"Y","SITEID":"701","AGE":68,"SEX":"M","RACE":"WHITE","ARMCD":"Xan_Lo","TRTSDT":"2014-01-01","TRTEDT":"2014-07-09"},{"STUDYID":"CDISCPILOT01","USUBJID":"01-701-1097","DOMAIN":"ADVS","PARAMCD":"VSDBPST","PARAM":"Diastolic Blood Pressure (Standing) (mmHg)","PARAMN":4,"ADT":"2014-01-01","ADY":1,"AVISIT":"Baseline","AVISITN":0,"AVAL":78,"AVALU":"mmHg","BASE":78,"CHG":null,"PCHG":null,"ABLFL":"Y","TRT01A":"Xanomeline Low Dose","TRT01AN":2,"SAFFL":"Y","ITTFL":"Y","SITEID":"701","AGE":68,"SEX":"M","RACE":"WHITE","ARMCD":"Xan_Lo","TRTSDT":"2014-01-01","TRTEDT":"2014-07-09"},{"STUDYID":"CDISCPILOT01","USUBJID":"01-701-1097","DOMAIN":"ADVS","PARAMCD":"VSDBPST","PARAM":"Diastolic Blood Pressure (Standing) (mmHg)","PARAMN":4,"ADT":"2014-01-15","ADY":15,"AVISIT":"Week 2","AVISITN":2,"AVAL":82,"AVALU":"mmHg","BASE":78,"CHG":4,"PCHG":5.1282,"ABLFL":"Y","TRT01A":"Xanomeline Low Dose","TRT01AN":2,"SAFFL":"Y","ITTFL":"Y","SITEID":"701","AGE":68,"SEX":"M","RACE":"WHITE","ARMCD":"Xan_Lo","TRTSDT":"2014-01-01","TRTEDT":"2014-07-09"},{"STUDYID":"CDISCPILOT01","USUBJID":"01-701-1097","DOMAIN":"ADVS","PARAMCD":"VSDBPST","PARAM":"Diastolic Blood Pressure (Standing) (mmHg)","PARAMN":4,"ADT":"2014-01-29","ADY":29,"AVISIT":"Week 4","AVISITN":4,"AVAL":70,"AVALU":"mmHg","BASE":78,"CHG":-8,"PCHG":-10.2564,"ABLFL":"Y","TRT01A":"Xanomeline Low Dose","TRT01AN":2,"SAFFL":"Y","ITTFL":"Y","SITEID":"701","AGE":68,"SEX":"M","RACE":"WHITE","ARMCD":"Xan_Lo","TRTSDT":"2014-01-01","TRTEDT":"2014-07-09"},{"STUDYID":"CDISCPILOT01","USUBJID":"01-701-1097","DOMAIN":"ADVS","PARAMCD":"VSDBPST","PARAM":"Diastolic Blood Pressure (Standing) (mmHg)","PARAMN":4,"ADT":"2014-02-11","ADY":42,"AVISIT":"Week 6","AVISITN":6,"AVAL":70,"AVALU":"mmHg","BASE":78,"CHG":-8,"PCHG":-10.2564,"ABLFL":"Y","TRT01A":"Xanomeline Low Dose","TRT01AN":2,"SAFFL":"Y","ITTFL":"Y","SITEID":"701","AGE":68,"SEX":"M","RACE":"WHITE","ARMCD":"Xan_Lo","TRTSDT":"2014-01-01","TRTEDT":"2014-07-09"},{"STUDYID":"CDISCPILOT01","USUBJID":"01-701-1097","DOMAIN":"ADVS","PARAMCD":"VSDBPST","PARAM":"Diastolic Blood Pressure (Standing) (mmHg)","PARAMN":4,"ADT":"2014-02-26","ADY":57,"AVISIT":"Week 8","AVISITN":8,"AVAL":73,"AVALU":"mmHg","BASE":78,"CHG":-5,"PCHG":-6.4103,"ABLFL":"Y","TRT01A":"Xanomeline Low Dose","TRT01AN":2,"SAFFL":"Y","ITTFL":"Y","SITEID":"701","AGE":68,"SEX":"M","RACE":"WHITE","ARMCD":"Xan_Lo","TRTSDT":"2014-01-01","TRTEDT":"2014-07-09"},{"STUDYID":"CDISCPILOT01","USUBJID":"01-701-1097","DOMAIN":"ADVS","PARAMCD":"VSDBPST","PARAM":"Diastolic Blood Pressure (Standing) (mmHg)","PARAMN":4,"ADT":"2014-03-26","ADY":85,"AVISIT":"Week 12","AVISITN":12,"AVAL":70,"AVALU":"mmHg","BASE":78,"CHG":-8,"PCHG":-10.2564,"ABLFL":"Y","TRT01A":"Xanomeline Low Dose","TRT01AN":2,"SAFFL":"Y","ITTFL":"Y","SITEID":"701","AGE":68,"SEX":"M","RACE":"WHITE","ARMCD":"Xan_Lo","TRTSDT":"2014-01-01","TRTEDT":"2014-07-09"},{"STUDYID":"CDISCPILOT01","USUBJID":"01-701-1097","DOMAIN":"ADVS","PARAMCD":"VSDBPST","PARAM":"Diastolic Blood Pressure (Standing) (mmHg)","PARAMN":4,"ADT":"2014-04-23","ADY":113,"AVISIT":"Week 16","AVISITN":16,"AVAL":76,"AVALU":"mmHg","BASE":78,"CHG":-2,"PCHG":-2.5641,"ABLFL":"Y","TRT01A":"Xanomeline Low Dose","TRT01AN":2,"SAFFL":"Y","ITTFL":"Y","SITEID":"701","AGE":68,"SEX":"M","RACE":"WHITE","ARMCD":"Xan_Lo","TRTSDT":"2014-01-01","TRTEDT":"2014-07-09"},{"STUDYID":"CDISCPILOT01","USUBJID":"01-701-1097","DOMAIN":"ADVS","PARAMCD":"VSDBPST","PARAM":"Diastolic Blood Pressure (Standing) (mmHg)","PARAMN":4,"ADT":"2014-05-21","ADY":141,"AVISIT":"Week 20","AVISITN":20,"AVAL":58,"AVALU":"mmHg","BASE":78,"CHG":-20,"PCHG":-25.641,"ABLFL":"Y","TRT01A":"Xanomeline Low Dose","TRT01AN":2,"SAFFL":"Y","ITTFL":"Y","SITEID":"701","AGE":68,"SEX":"M","RACE":"WHITE","ARMCD":"Xan_Lo","TRTSDT":"2014-01-01","TRTEDT":"2014-07-09"},{"STUDYID":"CDISCPILOT01","USUBJID":"01-701-1097","DOMAIN":"ADVS","PARAMCD":"VSDBPST","PARAM":"Diastolic Blood Pressure (Standing) (mmHg)","PARAMN":4,"ADT":"2014-06-18","ADY":169,"AVISIT":"Week 24","AVISITN":24,"AVAL":84,"AVALU":"mmHg","BASE":78,"CHG":6,"PCHG":7.6923,"ABLFL":"Y","TRT01A":"Xanomeline Low Dose","TRT01AN":2,"SAFFL":"Y","ITTFL":"Y","SITEID":"701","AGE":68,"SEX":"M","RACE":"WHITE","ARMCD":"Xan_Lo","TRTSDT":"2014-01-01","TRTEDT":"2014-07-09"},{"STUDYID":"CDISCPILOT01","USUBJID":"01-701-1097","DOMAIN":"ADVS","PARAMCD":"VSDBPST","PARAM":"Diastolic Blood Pressure (Standing) (mmHg)","PARAMN":4,"ADT":"2014-07-09","ADY":190,"AVISIT":"Week 26","AVISITN":26,"AVAL":78,"AVALU":"mmHg","BASE":78,"CHG":0,"PCHG":0,"ABLFL":"Y","TRT01A":"Xanomeline Low Dose","TRT01AN":2,"SAFFL":"Y","ITTFL":"Y","SITEID":"701","AGE":68,"SEX":"M","RACE":"WHITE","ARMCD":"Xan_Lo","TRTSDT":"2014-01-01","TRTEDT":"2014-07-09"},{"STUDYID":"CDISCPILOT01","USUBJID":"01-701-1097","DOMAIN":"ADVS","PARAMCD":"PULSE","PARAM":"Pulse Rate (Supine) (beats/min)","PARAMN":5,"ADT":"2013-12-23","ADY":-9,"AVISIT":"Screening","AVISITN":-2,"AVAL":59,"AVALU":"BEATS/MIN","BASE":60,"CHG":null,"PCHG":null,"ABLFL":"Y","TRT01A":"Xanomeline Low Dose","TRT01AN":2,"SAFFL":"Y","ITTFL":"Y","SITEID":"701","AGE":68,"SEX":"M","RACE":"WHITE","ARMCD":"Xan_Lo","TRTSDT":"2014-01-01","TRTEDT":"2014-07-09"},{"STUDYID":"CDISCPILOT01","USUBJID":"01-701-1097","DOMAIN":"ADVS","PARAMCD":"PULSE","PARAM":"Pulse Rate (Supine) (beats/min)","PARAMN":5,"ADT":"2014-01-01","ADY":1,"AVISIT":"Baseline","AVISITN":0,"AVAL":60,"AVALU":"BEATS/MIN","BASE":60,"CHG":null,"PCHG":null,"ABLFL":"Y","TRT01A":"Xanomeline Low Dose","TRT01AN":2,"SAFFL":"Y","ITTFL":"Y","SITEID":"701","AGE":68,"SEX":"M","RACE":"WHITE","ARMCD":"Xan_Lo","TRTSDT":"2014-01-01","TRTEDT":"2014-07-09"},{"STUDYID":"CDISCPILOT01","USUBJID":"01-701-1097","DOMAIN":"ADVS","PARAMCD":"PULSE","PARAM":"Pulse Rate (Supine) (beats/min)","PARAMN":5,"ADT":"2014-01-15","ADY":15,"AVISIT":"Week 2","AVISITN":2,"AVAL":66,"AVALU":"BEATS/MIN","BASE":60,"CHG":6,"PCHG":10,"ABLFL":"Y","TRT01A":"Xanomeline Low Dose","TRT01AN":2,"SAFFL":"Y","ITTFL":"Y","SITEID":"701","AGE":68,"SEX":"M","RACE":"WHITE","ARMCD":"Xan_Lo","TRTSDT":"2014-01-01","TRTEDT":"2014-07-09"},{"STUDYID":"CDISCPILOT01","USUBJID":"01-701-1097","DOMAIN":"ADVS","PARAMCD":"PULSE","PARAM":"Pulse Rate (Supine) (beats/min)","PARAMN":5,"ADT":"2014-01-29","ADY":29,"AVISIT":"Week 4","AVISITN":4,"AVAL":50,"AVALU":"BEATS/MIN","BASE":60,"CHG":-10,"PCHG":-16.6667,"ABLFL":"Y","TRT01A":"Xanomeline Low Dose","TRT01AN":2,"SAFFL":"Y","ITTFL":"Y","SITEID":"701","AGE":68,"SEX":"M","RACE":"WHITE","ARMCD":"Xan_Lo","TRTSDT":"2014-01-01","TRTEDT":"2014-07-09"},{"STUDYID":"CDISCPILOT01","USUBJID":"01-701-1097","DOMAIN":"ADVS","PARAMCD":"PULSE","PARAM":"Pulse Rate (Supine) (beats/min)","PARAMN":5,"ADT":"2014-02-11","ADY":42,"AVISIT":"Week 6","AVISITN":6,"AVAL":64,"AVALU":"BEATS/MIN","BASE":60,"CHG":4,"PCHG":6.6667,"ABLFL":"Y","TRT01A":"Xanomeline Low Dose","TRT01AN":2,"SAFFL":"Y","ITTFL":"Y","SITEID":"701","AGE":68,"SEX":"M","RACE":"WHITE","ARMCD":"Xan_Lo","TRTSDT":"2014-01-01","TRTEDT":"2014-07-09"},{"STUDYID":"CDISCPILOT01","USUBJID":"01-701-1097","DOMAIN":"ADVS","PARAMCD":"PULSE","PARAM":"Pulse Rate (Supine) (beats/min)","PARAMN":5,"ADT":"2014-02-26","ADY":57,"AVISIT":"Week 8","AVISITN":8,"AVAL":54,"AVALU":"BEATS/MIN","BASE":60,"CHG":-6,"PCHG":-10,"ABLFL":"Y","TRT01A":"Xanomeline Low Dose","TRT01AN":2,"SAFFL":"Y","ITTFL":"Y","SITEID":"701","AGE":68,"SEX":"M","RACE":"WHITE","ARMCD":"Xan_Lo","TRTSDT":"2014-01-01","TRTEDT":"2014-07-09"},{"STUDYID":"CDISCPILOT01","USUBJID":"01-701-1097","DOMAIN":"ADVS","PARAMCD":"PULSE","PARAM":"Pulse Rate (Supine) (beats/min)","PARAMN":5,"ADT":"2014-03-26","ADY":85,"AVISIT":"Week 12","AVISITN":12,"AVAL":58,"AVALU":"BEATS/MIN","BASE":60,"CHG":-2,"PCHG":-3.3333,"ABLFL":"Y","TRT01A":"Xanomeline Low Dose","TRT01AN":2,"SAFFL":"Y","ITTFL":"Y","SITEID":"701","AGE":68,"SEX":"M","RACE":"WHITE","ARMCD":"Xan_Lo","TRTSDT":"2014-01-01","TRTEDT":"2014-07-09"},{"STUDYID":"CDISCPILOT01","USUBJID":"01-701-1097","DOMAIN":"ADVS","PARAMCD":"PULSE","PARAM":"Pulse Rate (Supine) (beats/min)","PARAMN":5,"ADT":"2014-04-23","ADY":113,"AVISIT":"Week 16","AVISITN":16,"AVAL":67,"AVALU":"BEATS/MIN","BASE":60,"CHG":7,"PCHG":11.6667,"ABLFL":"Y","TRT01A":"Xanomeline Low Dose","TRT01AN":2,"SAFFL":"Y","ITTFL":"Y","SITEID":"701","AGE":68,"SEX":"M","RACE":"WHITE","ARMCD":"Xan_Lo","TRTSDT":"2014-01-01","TRTEDT":"2014-07-09"},{"STUDYID":"CDISCPILOT01","USUBJID":"01-701-1097","DOMAIN":"ADVS","PARAMCD":"PULSE","PARAM":"Pulse Rate (Supine) (beats/min)","PARAMN":5,"ADT":"2014-05-21","ADY":141,"AVISIT":"Week 20","AVISITN":20,"AVAL":61,"AVALU":"BEATS/MIN","BASE":60,"CHG":1,"PCHG":1.6667,"ABLFL":"Y","TRT01A":"Xanomeline Low Dose","TRT01AN":2,"SAFFL":"Y","ITTFL":"Y","SITEID":"701","AGE":68,"SEX":"M","RACE":"WHITE","ARMCD":"Xan_Lo","TRTSDT":"2014-01-01","TRTEDT":"2014-07-09"},{"STUDYID":"CDISCPILOT01","USUBJID":"01-701-1097","DOMAIN":"ADVS","PARAMCD":"PULSE","PARAM":"Pulse Rate (Supine) (beats/min)","PARAMN":5,"ADT":"2014-06-18","ADY":169,"AVISIT":"Week 24","AVISITN":24,"AVAL":65,"AVALU":"BEATS/MIN","BASE":60,"CHG":5,"PCHG":8.3333,"ABLFL":"Y","TRT01A":"Xanomeline Low Dose","TRT01AN":2,"SAFFL":"Y","ITTFL":"Y","SITEID":"701","AGE":68,"SEX":"M","RACE":"WHITE","ARMCD":"Xan_Lo","TRTSDT":"2014-01-01","TRTEDT":"2014-07-09"},{"STUDYID":"CDISCPILOT01","USUBJID":"01-701-1097","DOMAIN":"ADVS","PARAMCD":"PULSE","PARAM":"Pulse Rate (Supine) (beats/min)","PARAMN":5,"ADT":"2014-07-09","ADY":190,"AVISIT":"Week 26","AVISITN":26,"AVAL":58,"AVALU":"BEATS/MIN","BASE":60,"CHG":-2,"PCHG":-3.3333,"ABLFL":"Y","TRT01A":"Xanomeline Low Dose","TRT01AN":2,"SAFFL":"Y","ITTFL":"Y","SITEID":"701","AGE":68,"SEX":"M","RACE":"WHITE","ARMCD":"Xan_Lo","TRTSDT":"2014-01-01","TRTEDT":"2014-07-09"},{"STUDYID":"CDISCPILOT01","USUBJID":"01-701-1097","DOMAIN":"ADVS","PARAMCD":"VSPULST","PARAM":"Pulse Rate (Standing) (beats/min)","PARAMN":6,"ADT":"2013-12-23","ADY":-9,"AVISIT":"Screening","AVISITN":-2,"AVAL":66,"AVALU":"BEATS/MIN","BASE":68,"CHG":null,"PCHG":null,"ABLFL":"Y","TRT01A":"Xanomeline Low Dose","TRT01AN":2,"SAFFL":"Y","ITTFL":"Y","SITEID":"701","AGE":68,"SEX":"M","RACE":"WHITE","ARMCD":"Xan_Lo","TRTSDT":"2014-01-01","TRTEDT":"2014-07-09"},{"STUDYID":"CDISCPILOT01","USUBJID":"01-701-1097","DOMAIN":"ADVS","PARAMCD":"VSPULST","PARAM":"Pulse Rate (Standing) (beats/min)","PARAMN":6,"ADT":"2014-01-01","ADY":1,"AVISIT":"Baseline","AVISITN":0,"AVAL":68,"AVALU":"BEATS/MIN","BASE":68,"CHG":null,"PCHG":null,"ABLFL":"Y","TRT01A":"Xanomeline Low Dose","TRT01AN":2,"SAFFL":"Y","ITTFL":"Y","SITEID":"701","AGE":68,"SEX":"M","RACE":"WHITE","ARMCD":"Xan_Lo","TRTSDT":"2014-01-01","TRTEDT":"2014-07-09"},{"STUDYID":"CDISCPILOT01","USUBJID":"01-701-1097","DOMAIN":"ADVS","PARAMCD":"VSPULST","PARAM":"Pulse Rate (Standing) (beats/min)","PARAMN":6,"ADT":"2014-01-15","ADY":15,"AVISIT":"Week 2","AVISITN":2,"AVAL":72,"AVALU":"BEATS/MIN","BASE":68,"CHG":4,"PCHG":5.8824,"ABLFL":"Y","TRT01A":"Xanomeline Low Dose","TRT01AN":2,"SAFFL":"Y","ITTFL":"Y","SITEID":"701","AGE":68,"SEX":"M","RACE":"WHITE","ARMCD":"Xan_Lo","TRTSDT":"2014-01-01","TRTEDT":"2014-07-09"},{"STUDYID":"CDISCPILOT01","USUBJID":"01-701-1097","DOMAIN":"ADVS","PARAMCD":"VSPULST","PARAM":"Pulse Rate (Standing) (beats/min)","PARAMN":6,"ADT":"2014-01-29","ADY":29,"AVISIT":"Week 4","AVISITN":4,"AVAL":54,"AVALU":"BEATS/MIN","BASE":68,"CHG":-14,"PCHG":-20.5882,"ABLFL":"Y","TRT01A":"Xanomeline Low Dose","TRT01AN":2,"SAFFL":"Y","ITTFL":"Y","SITEID":"701","AGE":68,"SEX":"M","RACE":"WHITE","ARMCD":"Xan_Lo","TRTSDT":"2014-01-01","TRTEDT":"2014-07-09"},{"STUDYID":"CDISCPILOT01","USUBJID":"01-701-1097","DOMAIN":"ADVS","PARAMCD":"VSPULST","PARAM":"Pulse Rate (Standing) (beats/min)","PARAMN":6,"ADT":"2014-02-11","ADY":42,"AVISIT":"Week 6","AVISITN":6,"AVAL":76,"AVALU":"BEATS/MIN","BASE":68,"CHG":8,"PCHG":11.7647,"ABLFL":"Y","TRT01A":"Xanomeline Low Dose","TRT01AN":2,"SAFFL":"Y","ITTFL":"Y","SITEID":"701","AGE":68,"SEX":"M","RACE":"WHITE","ARMCD":"Xan_Lo","TRTSDT":"2014-01-01","TRTEDT":"2014-07-09"},{"STUDYID":"CDISCPILOT01","USUBJID":"01-701-1097","DOMAIN":"ADVS","PARAMCD":"VSPULST","PARAM":"Pulse Rate (Standing) (beats/min)","PARAMN":6,"ADT":"2014-02-26","ADY":57,"AVISIT":"Week 8","AVISITN":8,"AVAL":62,"AVALU":"BEATS/MIN","BASE":68,"CHG":-6,"PCHG":-8.8235,"ABLFL":"Y","TRT01A":"Xanomeline Low Dose","TRT01AN":2,"SAFFL":"Y","ITTFL":"Y","SITEID":"701","AGE":68,"SEX":"M","RACE":"WHITE","ARMCD":"Xan_Lo","TRTSDT":"2014-01-01","TRTEDT":"2014-07-09"},{"STUDYID":"CDISCPILOT01","USUBJID":"01-701-1097","DOMAIN":"ADVS","PARAMCD":"VSPULST","PARAM":"Pulse Rate (Standing) (beats/min)","PARAMN":6,"ADT":"2014-03-26","ADY":85,"AVISIT":"Week 12","AVISITN":12,"AVAL":72,"AVALU":"BEATS/MIN","BASE":68,"CHG":4,"PCHG":5.8824,"ABLFL":"Y","TRT01A":"Xanomeline Low Dose","TRT01AN":2,"SAFFL":"Y","ITTFL":"Y","SITEID":"701","AGE":68,"SEX":"M","RACE":"WHITE","ARMCD":"Xan_Lo","TRTSDT":"2014-01-01","TRTEDT":"2014-07-09"},{"STUDYID":"CDISCPILOT01","USUBJID":"01-701-1097","DOMAIN":"ADVS","PARAMCD":"VSPULST","PARAM":"Pulse Rate (Standing) (beats/min)","PARAMN":6,"ADT":"2014-04-23","ADY":113,"AVISIT":"Week 16","AVISITN":16,"AVAL":74,"AVALU":"BEATS/MIN","BASE":68,"CHG":6,"PCHG":8.8235,"ABLFL":"Y","TRT01A":"Xanomeline Low Dose","TRT01AN":2,"SAFFL":"Y","ITTFL":"Y","SITEID":"701","AGE":68,"SEX":"M","RACE":"WHITE","ARMCD":"Xan_Lo","TRTSDT":"2014-01-01","TRTEDT":"2014-07-09"},{"STUDYID":"CDISCPILOT01","USUBJID":"01-701-1097","DOMAIN":"ADVS","PARAMCD":"VSPULST","PARAM":"Pulse Rate (Standing) (beats/min)","PARAMN":6,"ADT":"2014-05-21","ADY":141,"AVISIT":"Week 20","AVISITN":20,"AVAL":70,"AVALU":"BEATS/MIN","BASE":68,"CHG":2,"PCHG":2.9412,"ABLFL":"Y","TRT01A":"Xanomeline Low Dose","TRT01AN":2,"SAFFL":"Y","ITTFL":"Y","SITEID":"701","AGE":68,"SEX":"M","RACE":"WHITE","ARMCD":"Xan_Lo","TRTSDT":"2014-01-01","TRTEDT":"2014-07-09"},{"STUDYID":"CDISCPILOT01","USUBJID":"01-701-1097","DOMAIN":"ADVS