"USUBJID","VSSEQ","VSTESTCD","VSTEST","VSORRES","VSORRESU","VSSTRESC","VSSTRESN","VSSTRESU","VSDTC","VISITNUM","VISIT","TRT01P","TRT01PN"
"01-701-1015",1,"DIABP","Diastolic Blood Pressure","64","mmHg","64",64,"mmHg","2013-12-26",1,"SCREENING 1","Placebo",NA
"01-701-1015",2,"DIABP","Diastolic Blood Pressure","83","mmHg","83",83,"mmHg","2013-12-26",1,"SCREENING 1","Placebo",NA
"01-701-1015",3,"DIABP","Diastolic Blood Pressure","57","mmHg","57",57,"mmHg","2013-12-26",1,"SCREENING 1","Placebo",NA
"01-701-1015",4,"DIABP","Diastolic Blood Pressure","68","mmHg","68",68,"mmHg","2013-12-31",2,"SCREENING 2","Placebo",NA
"01-701-1015",5,"DIABP","Diastolic Blood Pressure","59","mmHg","59",59,"mmHg","2013-12-31",2,"SCREENING 2","Placebo",NA
"01-701-1015",6,"DIABP","Diastolic Blood Pressure","71","mmHg","71",71,"mmHg","2013-12-31",2,"SCREENING 2","Placebo",NA
"01-701-1015",7,"DIABP","Diastolic Blood Pressure","56","mmHg","56",56,"mmHg","2014-01-02",3,"BASELINE","Placebo",NA
"01-701-1015",8,"DIABP","Diastolic Blood Pressure","51","mmHg","51",51,"mmHg","2014-01-02",3,"BASELINE","Placebo",NA
"01-701-1015",9,"DIABP","Diastolic Blood Pressure","61","mmHg","61",61,"mmHg","2014-01-02",3,"BASELINE","Placebo",NA
"01-701-1015",10,"DIABP","Diastolic Blood Pressure","67","mmHg","67",67,"mmHg","2014-01-14",3.5,"AMBUL ECG PLACEMENT","Placebo",NA
"01-701-1015",11,"DIABP","Diastolic Blood Pressure","61","mmHg","61",61,"mmHg","2014-01-14",3.5,"AMBUL ECG PLACEMENT","Placebo",NA
"01-701-1015",12,"DIABP","Diastolic Blood Pressure","65","mmHg","65",65,"mmHg","2014-01-14",3.5,"AMBUL ECG PLACEMENT","Placebo",NA
"01-701-1015",13,"DIABP","Diastolic Blood Pressure","56","mmHg","56",56,"mmHg","2014-01-16",4,"WEEK 2","Placebo",NA
"01-701-1015",14,"DIABP","Diastolic Blood Pressure","50","mmHg","50",50,"mmHg","2014-01-16",4,"WEEK 2","Placebo",NA
"01-701-1015",15,"DIABP","Diastolic Blood Pressure","54","mmHg","54",54,"mmHg","2014-01-16",4,"WEEK 2","Placebo",NA
"01-701-1015",16,"DIABP","Diastolic Blood Pressure","64","mmHg","64",64,"mmHg","2014-01-30",5,"WEEK 4","Placebo",NA
"01-701-1015",17,"DIABP","Diastolic Blood Pressure","55","mmHg","55",55,"mmHg","2014-01-30",5,"WEEK 4","Placebo",NA
"01-701-1015",18,"DIABP","Diastolic Blood Pressure","53","mmHg","53",53,"mmHg","2014-01-30",5,"WEEK 4","Placebo",NA
"01-701-1015",19,"DIABP","Diastolic Blood Pressure","72","mmHg","72",72,"mmHg","2014-02-01",6,"AMBUL ECG REMOVAL","Placebo",NA
"01-701-1015",20,"DIABP","Diastolic Blood Pressure","61","mmHg","61",61,"mmHg","2014-02-01",6,"AMBUL ECG REMOVAL","Placebo",NA
"01-701-1015",21,"DIABP","Diastolic Blood Pressure","53","mmHg","53",53,"mmHg","2014-02-01",6,"AMBUL ECG REMOVAL","Placebo",NA
"01-701-1015",22,"DIABP","Diastolic Blood Pressure","55","mmHg","55",55,"mmHg","2014-02-12",7,"WEEK 6","Placebo",NA
"01-701-1015",23,"DIABP","Diastolic Blood Pressure","63","mmHg","63",63,"mmHg","2014-02-12",7,"WEEK 6","Placebo",NA
"01-701-1015",24,"DIABP","Diastolic Blood Pressure","60","mmHg","60",60,"mmHg","2014-02-12",7,"WEEK 6","Placebo",NA
"01-701-1015",25,"DIABP","Diastolic Blood Pressure","67","mmHg","67",67,"mmHg","2014-03-05",8,"WEEK 8","Placebo",NA
"01-701-1015",26,"DIABP","Diastolic Blood Pressure","62","mmHg","62",62,"mmHg","2014-03-05",8,"WEEK 8","Placebo",NA
"01-701-1015",27,"DIABP","Diastolic Blood Pressure","71","mmHg","71",71,"mmHg","2014-03-05",8,"WEEK 8","Placebo",NA
"01-701-1015",28,"DIABP","Diastolic Blood Pressure","68","mmHg","68",68,"mmHg","2014-03-26",9,"WEEK 12","Placebo",NA
"01-701-1015",29,"DIABP","Diastolic Blood Pressure","60","mmHg","60",60,"mmHg","2014-03-26",9,"WEEK 12","Placebo",NA
"01-701-1015",30,"DIABP","Diastolic Blood Pressure","64","mmHg","64",64,"mmHg","2014-03-26",9,"WEEK 12","Placebo",NA
"01-701-1015",31,"DIABP","Diastolic Blood Pressure","66","mmHg","66",66,"mmHg","2014-05-07",10,"WEEK 16","Placebo",NA
"01-701-1015",32,"DIABP","Diastolic Blood Pressure","68","mmHg","68",68,"mmHg","2014-05-07",10,"WEEK 16","Placebo",NA
"01-701-1015",33,"DIABP","Diastolic Blood Pressure","66","mmHg","66",66,"mmHg","2014-05-07",10,"WEEK 16","Placebo",NA
"01-701-1015",34,"DIABP","Diastolic Blood Pressure","67","mmHg","67",67,"mmHg","2014-05-21",11,"WEEK 20","Placebo",NA
"01-701-1015",35,"DIABP","Diastolic Blood Pressure","65","mmHg","65",65,"mmHg","2014-05-21",11,"WEEK 20","Placebo",NA
"01-701-1015",36,"DIABP","Diastolic Blood Pressure","63","mmHg","63",63,"mmHg","2014-05-21",11,"WEEK 20","Placebo",NA
"01-701-1015",37,"DIABP","Diastolic Blood Pressure","63","mmHg","63",63,"mmHg","2014-06-18",12,"WEEK 24","Placebo",NA
"01-701-1015",38,"DIABP","Diastolic Blood Pressure","57","mmHg","57",57,"mmHg","2014-06-18",12,"WEEK 24","Placebo",NA
"01-701-1015",39,"DIABP","Diastolic Blood Pressure","71","mmHg","71",71,"mmHg","2014-06-18",12,"WEEK 24","Placebo",NA
"01-701-1015",40,"DIABP","Diastolic Blood Pressure","61","mmHg","61",61,"mmHg","2014-07-02",13,"WEEK 26","Placebo",NA
"01-701-1015",41,"DIABP","Diastolic Blood Pressure","59","mmHg","59",59,"mmHg","2014-07-02",13,"WEEK 26","Placebo",NA
"01-701-1015",42,"DIABP","Diastolic Blood Pressure","55","mmHg","55",55,"mmHg","2014-07-02",13,"WEEK 26","Placebo",NA
"01-701-1015",43,"HEIGHT","Height","58.0","IN","147.32",147.32,"cm","2013-12-26",1,"SCREENING 1","Placebo",NA
"01-701-1015",44,"PULSE","Pulse Rate","57","BEATS/MIN","57",57,"BEATS/MIN","2013-12-26",1,"SCREENING 1","Placebo",NA
"01-701-1015",45,"PULSE","Pulse Rate","62","BEATS/MIN","62",62,"BEATS/MIN","2013-12-26",1,"SCREENING 1","Placebo",NA
"01-701-1015",46,"PULSE","Pulse Rate","65","BEATS/MIN","65",65,"BEATS/MIN","2013-12-26",1,"SCREENING 1","Placebo",NA
"01-701-1015",47,"PULSE","Pulse Rate","56","BEATS/MIN","56",56,"BEATS/MIN","2013-12-31",2,"SCREENING 2","Placebo",NA
"01-701-1015",48,"PULSE","Pulse Rate","60","BEATS/MIN","60",60,"BEATS/MIN","2013-12-31",2,"SCREENING 2","Placebo",NA
"01-701-1015",49,"PULSE","Pulse Rate","57","BEATS/MIN","57",57,"BEATS/MIN","2013-12-31",2,"SCREENING 2","Placebo",NA
"01-701-1015",50,"PULSE","Pulse Rate","56","BEATS/MIN","56",56,"BEATS/MIN","2014-01-02",3,"BASELINE","Placebo",NA
"01-701-1015",51,"PULSE","Pulse Rate","59","BEATS/MIN","59",59,"BEATS/MIN","2014-01-02",3,"BASELINE","Placebo",NA
"01-701-1015",52,"PULSE","Pulse Rate","59","BEATS/MIN","59",59,"BEATS/MIN","2014-01-02",3,"BASELINE","Placebo",NA
"01-701-1015",53,"PULSE","Pulse Rate","61","BEATS/MIN","61",61,"BEATS/MIN","2014-01-14",3.5,"AMBUL ECG PLACEMENT","Placebo",NA
"01-701-1015",54,"PULSE","Pulse Rate","65","BEATS/MIN","65",65,"BEATS/MIN","2014-01-14",3.5,"AMBUL ECG PLACEMENT","Placebo",NA
"01-701-1015",55,"PULSE","Pulse Rate","61","BEATS/MIN","61",61,"BEATS/MIN","2014-01-14",3.5,"AMBUL ECG PLACEMENT","Placebo",NA
"01-701-1015",56,"PULSE","Pulse Rate","58","BEATS/MIN","58",58,"BEATS/MIN","2014-01-16",4,"WEEK 2","Placebo",NA
"01-701-1015",57,"PULSE","Pulse Rate","61","BEATS/MIN","61",61,"BEATS/MIN","2014-01-16",4,"WEEK 2","Placebo",NA
"01-701-1015",58,"PULSE","Pulse Rate","62","BEATS/MIN","62",62,"BEATS/MIN","2014-01-16",4,"WEEK 2","Placebo",NA
"01-701-1015",59,"PULSE","Pulse Rate","59","BEATS/MIN","59",59,"BEATS/MIN","2014-01-30",5,"WEEK 4","Placebo",NA
"01-701-1015",60,"PULSE","Pulse Rate","62","BEATS/MIN","62",62,"BEATS/MIN","2014-01-30",5,"WEEK 4","Placebo",NA
"01-701-1015",61,"PULSE","Pulse Rate","59","BEATS/MIN","59",59,"BEATS/MIN","2014-01-30",5,"WEEK 4","Placebo",NA
"01-701-1015",62,"PULSE","Pulse Rate","67","BEATS/MIN","67",67,"BEATS/MIN","2014-02-01",6,"AMBUL ECG REMOVAL","Placebo",NA
"01-701-1015",63,"PULSE","Pulse Rate","69","BEATS/MIN","69",69,"BEATS/MIN","2014-02-01",6,"AMBUL ECG REMOVAL","Placebo",NA
"01-701-1015",64,"PULSE","Pulse Rate","65","BEATS/MIN","65",65,"BEATS/MIN","2014-02-01",6,"AMBUL ECG REMOVAL","Placebo",NA
"01-701-1015",65,"PULSE","Pulse Rate","55","BEATS/MIN","55",55,"BEATS/MIN","2014-02-12",7,"WEEK 6","Placebo",NA
"01-701-1015",66,"PULSE","Pulse Rate","56","BEATS/MIN","56",56,"BEATS/MIN","2014-02-12",7,"WEEK 6","Placebo",NA
"01-701-1015",67,"PULSE","Pulse Rate","57","BEATS/MIN","57",57,"BEATS/MIN","2014-02-12",7,"WEEK 6","Placebo",NA
"01-701-1015",68,"PULSE","Pulse Rate","57","BEATS/MIN","57",57,"BEATS/MIN","2014-03-05",8,"WEEK 8","Placebo",NA
"01-701-1015",69,"PULSE","Pulse Rate","60","BEATS/MIN","60",60,"BEATS/MIN","2014-03-05",8,"WEEK 8","Placebo",NA
"01-701-1015",70,"PULSE","Pulse Rate","57","BEATS/MIN","57",57,"BEATS/MIN","2014-03-05",8,"WEEK 8","Placebo",NA
"01-701-1015",71,"PULSE","Pulse Rate","54","BEATS/MIN","54",54,"BEATS/MIN","2014-03-26",9,"WEEK 12","Placebo",NA
"01-701-1015",72,"PULSE","Pulse Rate","53","BEATS/MIN","53",53,"BEATS/MIN","2014-03-26",9,"WEEK 12","Placebo",NA
"01-701-1015",73,"PULSE","Pulse Rate","52","BEATS/MIN","52",52,"BEATS/MIN","2014-03-26",9,"WEEK 12","Placebo",NA
"01-701-1015",74,"PULSE","Pulse Rate","60","BEATS/MIN","60",60,"BEATS/MIN","2014-05-07",10,"WEEK 16","Placebo",NA
"01-701-1015",75,"PULSE","Pulse Rate","55","BEATS/MIN","55",55,"BEATS/MIN","2014-05-07",10,"WEEK 16","Placebo",NA
"01-701-1015",76,"PULSE","Pulse Rate","61","BEATS/MIN","61",61,"BEATS/MIN","2014-05-07",10,"WEEK 16","Placebo",NA
"01-701-1015",77,"PULSE","Pulse Rate","54","BEATS/MIN","54",54,"BEATS/MIN","2014-05-21",11,"WEEK 20","Placebo",NA
"01-701-1015",78,"PULSE","Pulse Rate","59","BEATS/MIN","59",59,"BEATS/MIN","2014-05-21",11,"WEEK 20","Placebo",NA
"01-701-1015",79,"PULSE","Pulse Rate","58","BEATS/MIN","58",58,"BEATS/MIN","2014-05-21",11,"WEEK 20","Placebo",NA
"01-701-1015",80,"PULSE","Pulse Rate","55","BEATS/MIN","55",55,"BEATS/MIN","2014-06-18",12,"WEEK 24","Placebo",NA
"01-701-1015",81,"PULSE","Pulse Rate","57","BEATS/MIN","57",57,"BEATS/MIN","2014-06-18",12,"WEEK 24","Placebo",NA
"01-701-1015",82,"PULSE","Pulse Rate","56","BEATS/MIN","56",56,"BEATS/MIN","2014-06-18",12,"WEEK 24","Placebo",NA
"01-701-1015",83,"PULSE","Pulse Rate","60","BEATS/MIN","60",60,"BEATS/MIN","2014-07-02",13,"WEEK 26","Placebo",NA
"01-701-1015",84,"PULSE","Pulse Rate","61","BEATS/MIN","61",61,"BEATS/MIN","2014-07-02",13,"WEEK 26","Placebo",NA
"01-701-1015",85,"PULSE","Pulse Rate","59","BEATS/MIN","59",59,"BEATS/MIN","2014-07-02",13,"WEEK 26","Placebo",NA
"01-701-1015",86,"SYSBP","Systolic Blood Pressure","131","mmHg","131",131,"mmHg","2013-12-26",1,"SCREENING 1","Placebo",NA
"01-701-1015",87,"SYSBP","Systolic Blood Pressure","129","mmHg","129",129,"mmHg","2013-12-26",1,"SCREENING 1","Placebo",NA
"01-701-1015",88,"SYSBP","Systolic Blood Pressure","147","mmHg","147",147,"mmHg","2013-12-26",1,"SCREENING 1","Placebo",NA
"01-701-1015",89,"SYSBP","Systolic Blood Pressure","138","mmHg","138",138,"mmHg","2013-12-31",2,"SCREENING 2","Placebo",NA
"01-701-1015",90,"SYSBP","Systolic Blood Pressure","137","mmHg","137",137,"mmHg","2013-12-31",2,"SCREENING 2","Placebo",NA
"01-701-1015",91,"SYSBP","Systolic Blood Pressure","145","mmHg","145",145,"mmHg","2013-12-31",2,"SCREENING 2","Placebo",NA
"01-701-1015",92,"SYSBP","Systolic Blood Pressure","130","mmHg","130",130,"mmHg","2014-01-02",3,"BASELINE","Placebo",NA
"01-701-1015",93,"SYSBP","Systolic Blood Pressure","121","mmHg","121",121,"mmHg","2014-01-02",3,"BASELINE","Placebo",NA
"01-701-1015",94,"SYSBP","Systolic Blood Pressure","131","mmHg","131",131,"mmHg","2014-01-02",3,"BASELINE","Placebo",NA
"01-701-1015",95,"SYSBP","Systolic Blood Pressure","137","mmHg","137",137,"mmHg","2014-01-14",3.5,"AMBUL ECG PLACEMENT","Placebo",NA
"01-701-1015",96,"SYSBP","Systolic Blood Pressure","127","mmHg","127",127,"mmHg","2014-01-14",3.5,"AMBUL ECG PLACEMENT","Placebo",NA
"01-701-1015",97,"SYSBP","Systolic Blood Pressure","146","mmHg","146",146,"mmHg","2014-01-14",3.5,"AMBUL ECG PLACEMENT","Placebo",NA
"01-701-1015",98,"SYSBP","Systolic Blood Pressure","114","mmHg","114",114,"mmHg","2014-01-16",4,"WEEK 2","Placebo",NA
"01-701-1015",99,"SYSBP","Systolic Blood Pressure","121","mmHg","121",121,"mmHg","2014-01-16",4,"WEEK 2","Placebo",NA
"01-701-1015",100,"SYSBP","Systolic Blood Pressure","132","mmHg","132",132,"mmHg","2014-01-16",4,"WEEK 2","Placebo",NA
"01-701-1015",101,"SYSBP","Systolic Blood Pressure","138","mmHg","138",138,"mmHg","2014-01-30",5,"WEEK 4","Placebo",NA
"01-701-1015",102,"SYSBP","Systolic Blood Pressure","137","mmHg","137",137,"mmHg","2014-01-30",5,"WEEK 4","Placebo",NA
"01-701-1015",103,"SYSBP","Systolic Blood Pressure","132","mmHg","132",132,"mmHg","2014-01-30",5,"WEEK 4","Placebo",NA
"01-701-1015",104,"SYSBP","Systolic Blood Pressure","138","mmHg","138",138,"mmHg","2014-02-01",6,"AMBUL ECG REMOVAL","Placebo",NA
"01-701-1015",105,"SYSBP","Systolic Blood Pressure","131","mmHg","131",131,"mmHg","2014-02-01",6,"AMBUL ECG REMOVAL","Placebo",NA
"01-701-1015",106,"SYSBP","Systolic Blood Pressure","123","mmHg","123",123,"mmHg","2014-02-01",6,"AMBUL ECG REMOVAL","Placebo",NA
"01-701-1015",107,"SYSBP","Systolic Blood Pressure","148","mmHg","148",148,"mmHg","2014-02-12",7,"WEEK 6","Placebo",NA
"01-701-1015",108,"SYSBP","Systolic Blood Pressure","137","mmHg","137",137,"mmHg","2014-02-12",7,"WEEK 6","Placebo",NA
"01-701-1015",109,"SYSBP","Systolic Blood Pressure","138","mmHg","138",138,"mmHg","2014-02-12",7,"WEEK 6","Placebo",NA
"01-701-1015",110,"SYSBP","Systolic Blood Pressure","138","mmHg","138",138,"mmHg","2014-03-05",8,"WEEK 8","Placebo",NA
"01-701-1015",111,"SYSBP","Systolic Blood Pressure","146","mmHg","146",146,"mmHg","2014-03-05",8,"WEEK 8","Placebo",NA
"01-701-1015",112,"SYSBP","Systolic Blood Pressure","140","mmHg","140",140,"mmHg","2014-03-05",8,"WEEK 8","Placebo",NA
"01-701-1015",113,"SYSBP","Systolic Blood Pressure","139","mmHg","139",139,"mmHg","2014-03-26",9,"WEEK 12","Placebo",NA
"01-701-1015",114,"SYSBP","Systolic Blood Pressure","146","mmHg","146",146,"mmHg","2014-03-26",9,"WEEK 12","Placebo",NA
"01-701-1015",115,"SYSBP","Systolic Blood Pressure","138","mmHg","138",138,"mmHg","2014-03-26",9,"WEEK 12","Placebo",NA
"01-701-1015",116,"SYSBP","Systolic Blood Pressure","163","mmHg","163",163,"mmHg","2014-05-07",10,"WEEK 16","Placebo",NA
"01-701-1015",117,"SYSBP","Systolic Blood Pressure","145","mmHg","145",145,"mmHg","2014-05-07",10,"WEEK 16","Placebo",NA
"01-701-1015",118,"SYSBP","Systolic Blood Pressure","152","mmHg","152",152,"mmHg","2014-05-07",10,"WEEK 16","Placebo",NA
"01-701-1015",119,"SYSBP","Systolic Blood Pressure","137","mmHg","137",137,"mmHg","2014-05-21",11,"WEEK 20","Placebo",NA
"01-701-1015",120,"SYSBP","Systolic Blood Pressure","139","mmHg","139",139,"mmHg","2014-05-21",11,"WEEK 20","Placebo",NA
"01-701-1015",121,"SYSBP","Systolic Blood Pressure","136","mmHg","136",136,"mmHg","2014-05-21",11,"WEEK 20","Placebo",NA
"01-701-1015",122,"SYSBP","Systolic Blood Pressure","129","mmHg","129",129,"mmHg","2014-06-18",12,"WEEK 24","Placebo",NA
"01-701-1015",123,"SYSBP","Systolic Blood Pressure","131","mmHg","131",131,"mmHg","2014-06-18",12,"WEEK 24","Placebo",NA
"01-701-1015",124,"SYSBP","Systolic Blood Pressure","137","mmHg","137",137,"mmHg","2014-06-18",12,"WEEK 24","Placebo",NA
"01-701-1015",125,"SYSBP","Systolic Blood Pressure","127","mmHg","127",127,"mmHg","2014-07-02",13,"WEEK 26","Placebo",NA
"01-701-1015",126,"SYSBP","Systolic Blood Pressure","128","mmHg","128",128,"mmHg","2014-07-02",13,"WEEK 26","Placebo",NA
"01-701-1015",127,"SYSBP","Systolic Blood Pressure","129","mmHg","129",129,"mmHg","2014-07-02",13,"WEEK 26","Placebo",NA
"01-701-1015",128,"TEMP","Temperature","96.9","F","36.06",36.06,"C","2013-12-26",1,"SCREENING 1","Placebo",NA
"01-701-1015",129,"TEMP","Temperature","97.0","F","36.11",36.11,"C","2013-12-31",2,"SCREENING 2","Placebo",NA
"01-701-1015",130,"TEMP","Temperature","97.2","F","36.22",36.22,"C","2014-01-02",3,"BASELINE","Placebo",NA
"01-701-1015",131,"TEMP","Temperature","96.6","F","35.89",35.89,"C","2014-01-14",3.5,"AMBUL ECG PLACEMENT","Placebo",NA
"01-701-1015",132,"TEMP","Temperature","97.7","F","36.5",36.5,"C","2014-01-16",4,"WEEK 2","Placebo",NA
"01-701-1015",133,"TEMP","Temperature","97.0","F","36.11",36.11,"C","2014-01-30",5,"WEEK 4","Placebo",NA
"01-701-1015",134,"TEMP","Temperature","97.5","F","36.39",36.39,"C","2014-02-01",6,"AMBUL ECG REMOVAL","Placebo",NA
"01-701-1015",135,"TEMP","Temperature","97.4","F","36.33",36.33,"C","2014-02-12",7,"WEEK 6","Placebo",NA
"01-701-1015",136,"TEMP","Temperature","98.0","F","36.67",36.67,"C","2014-03-05",8,"WEEK 8","Placebo",NA
"01-701-1015",137,"TEMP","Temperature","97.4","F","36.33",36.33,"C","2014-03-26",9,"WEEK 12","Placebo",NA
"01-701-1015",138,"TEMP","Temperature","97.9","F","36.61",36.61,"C","2014-05-07",10,"WEEK 16","Placebo",NA
"01-701-1015",139,"TEMP","Temperature","97.4","F","36.33",36.33,"C","2014-05-21",11,"WEEK 20","Placebo",NA
"01-701-1015",140,"TEMP","Temperature","97.7","F","36.5",36.5,"C","2014-06-18",12,"WEEK 24","Placebo",NA
"01-701-1015",141,"TEMP","Temperature","97.2","F","36.22",36.22,"C","2014-07-02",13,"WEEK 26","Placebo",NA
"01-701-1015",142,"WEIGHT","Weight","119.0","LB","53.98",53.98,"kg","2013-12-26",1,"SCREENING 1","Placebo",NA
"01-701-1015",143,"WEIGHT","Weight","120.0","LB","54.43",54.43,"kg","2014-01-02",3,"BASELINE","Placebo",NA
"01-701-1015",144,"WEIGHT","Weight","117.0","LB","53.07",53.07,"kg","2014-01-16",4,"WEEK 2","Placebo",NA
"01-701-1015",145,"WEIGHT","Weight","119.0","LB","53.98",53.98,"kg","2014-01-30",5,"WEEK 4","Placebo",NA
"01-701-1015",146,"WEIGHT","Weight","117.0","LB","53.07",53.07,"kg","2014-02-12",7,"WEEK 6","Placebo",NA
"01-701-1015",147,"WEIGHT","Weight","117.0","LB","53.07",53.07,"kg","2014-03-05",8,"WEEK 8","Placebo",NA
"01-701-1015",148,"WEIGHT","Weight","117.0","LB","53.07",53.07,"kg","2014-03-26",9,"WEEK 12","Placebo",NA
"01-701-1015",149,"WEIGHT","Weight","117.0","LB","53.07",53.07,"kg","2014-05-07",10,"WEEK 16","Placebo",NA
"01-701-1015",150,"WEIGHT","Weight","117.0","LB","53.07",53.07,"kg","2014-05-21",11,"WEEK 20","Placebo",NA
"01-701-1015",151,"WEIGHT","Weight","117.0","LB","53.07",53.07,"kg","2014-06-18",12,"WEEK 24","Placebo",NA
"01-701-1015",152,"WEIGHT","Weight","118.0","LB","53.52",53.52,"kg","2014-07-02",13,"WEEK 26","Placebo",NA
"01-701-1023",1,"DIABP","Diastolic Blood Pressure","86","mmHg","86",86,"mmHg","2012-07-22",1,"SCREENING 1","Placebo",NA
"01-701-1023",2,"DIABP","Diastolic Blood Pressure","89","mmHg","89",89,"mmHg","2012-07-22",1,"SCREENING 1","Placebo",NA
"01-701-1023",3,"DIABP","Diastolic Blood Pressure","90","mmHg","90",90,"mmHg","2012-07-22",1,"SCREENING 1","Placebo",NA
"01-701-1023",4,"DIABP","Diastolic Blood Pressure","77","mmHg","77",77,"mmHg","2012-08-03",2,"SCREENING 2","Placebo",NA
"01-701-1023",5,"DIABP","Diastolic Blood Pressure","79","mmHg","79",79,"mmHg","2012-08-03",2,"SCREENING 2","Placebo",NA
"01-701-1023",6,"DIABP","Diastolic Blood Pressure","85","mmHg","85",85,"mmHg","2012-08-03",2,"SCREENING 2","Placebo",NA
"01-701-1023",7,"DIABP","Diastolic Blood Pressure","84","mmHg","84",84,"mmHg","2012-08-05",3,"BASELINE","Placebo",NA
"01-701-1023",8,"DIABP","Diastolic Blood Pressure","86","mmHg","86",86,"mmHg","2012-08-05",3,"BASELINE","Placebo",NA
"01-701-1023",9,"DIABP","Diastolic Blood Pressure","88","mmHg","88",88,"mmHg","2012-08-05",3,"BASELINE","Placebo",NA
"01-701-1023",10,"DIABP","Diastolic Blood Pressure","82","mmHg","82",82,"mmHg","2012-08-26",3.5,"AMBUL ECG PLACEMENT","Placebo",NA
"01-701-1023",11,"DIABP","Diastolic Blood Pressure","88","mmHg","88",88,"mmHg","2012-08-26",3.5,"AMBUL ECG PLACEMENT","Placebo",NA
"01-701-1023",12,"DIABP","Diastolic Blood Pressure","89","mmHg","89",89,"mmHg","2012-08-26",3.5,"AMBUL ECG PLACEMENT","Placebo",NA
"01-701-1023",13,"DIABP","Diastolic Blood Pressure","88","mmHg","88",88,"mmHg","2012-08-27",4,"WEEK 2","Placebo",NA
"01-701-1023",14,"DIABP","Diastolic Blood Pressure","86","mmHg","86",86,"mmHg","2012-08-27",4,"WEEK 2","Placebo",NA
"01-701-1023",15,"DIABP","Diastolic Blood Pressure","90","mmHg","90",90,"mmHg","2012-08-27",4,"WEEK 2","Placebo",NA
"01-701-1023",16,"DIABP","Diastolic Blood Pressure","86","mmHg","86",86,"mmHg","2012-09-02",5,"WEEK 4","Placebo",NA
"01-701-1023",17,"DIABP","Diastolic Blood Pressure","88","mmHg","88",88,"mmHg","2012-09-02",5,"WEEK 4","Placebo",NA
"01-701-1023",18,"DIABP","Diastolic Blood Pressure","92","mmHg","92",92,"mmHg","2012-09-02",5,"WEEK 4","Placebo",NA
"01-701-1023",19,"DIABP","Diastolic Blood Pressure","89","mmHg","89",89,"mmHg","2013-02-18",201,"RETRIEVAL","Placebo",NA
"01-701-1023",20,"DIABP","Diastolic Blood Pressure","86","mmHg","86",86,"mmHg","2013-02-18",201,"RETRIEVAL","Placebo",NA
"01-701-1023",21,"DIABP","Diastolic Blood Pressure","84","mmHg","84",84,"mmHg","2013-02-18",201,"RETRIEVAL","Placebo",NA
"01-701-1023",22,"HEIGHT","Height","64.0","IN","162.56",162.56,"cm","2012-07-22",1,"SCREENING 1","Placebo",NA
"01-701-1023",23,"PULSE","Pulse Rate","65","BEATS/MIN","65",65,"BEATS/MIN","2012-07-22",1,"SCREENING 1","Placebo",NA
"01-701-1023",24,"PULSE","Pulse Rate","78","BEATS/MIN","78",78,"BEATS/MIN","2012-07-22",1,"SCREENING 1","Placebo",NA
"01-701-1023",25,"PULSE","Pulse Rate","74","BEATS/MIN","74",74,"BEATS/MIN","2012-07-22",1,"SCREENING 1","Placebo",NA
"01-701-1023",26,"PULSE","Pulse Rate","79","BEATS/MIN","79",79,"BEATS/MIN","2012-08-03",2,"SCREENING 2","Placebo",NA
"01-701-1023",27,"PULSE","Pulse Rate","91","BEATS/MIN","91",91,"BEATS/MIN","2012-08-03",2,"SCREENING 2","Placebo",NA
"01-701-1023",28,"PULSE","Pulse Rate","92","BEATS/MIN","92",92,"BEATS/MIN","2012-08-03",2,"SCREENING 2","Placebo",NA
"01-701-1023",29,"PULSE","Pulse Rate","68","BEATS/MIN","68",68,"BEATS/MIN","2012-08-05",3,"BASELINE","Placebo",NA
"01-701-1023",30,"PULSE","Pulse Rate","80","BEATS/MIN","80",80,"BEATS/MIN","2012-08-05",3,"BASELINE","Placebo",NA
"01-701-1023",31,"PULSE","Pulse Rate","76","BEATS/MIN","76",76,"BEATS/MIN","2012-08-05",3,"BASELINE","Placebo",NA
"01-701-1023",32,"PULSE","Pulse Rate","71","BEATS/MIN","71",71,"BEATS/MIN","2012-08-26",3.5,"AMBUL ECG PLACEMENT","Placebo",NA
"01-701-1023",33,"PULSE","Pulse Rate","79","BEATS/MIN","79",79,"BEATS/MIN","2012-08-26",3.5,"AMBUL ECG PLACEMENT","Placebo",NA
"01-701-1023",34,"PULSE","Pulse Rate","77","BEATS/MIN","77",77,"BEATS/MIN","2012-08-26",3.5,"AMBUL ECG PLACEMENT","Placebo",NA
"01-701-1023",35,"PULSE","Pulse Rate","84","BEATS/MIN","84",84,"BEATS/MIN","2012-08-27",4,"WEEK 2","Placebo",NA
"01-701-1023",36,"PULSE","Pulse Rate","92","BEATS/MIN","92",92,"BEATS/MIN","2012-08-27",4,"WEEK 2","Placebo",NA
"01-701-1023",37,"PULSE","Pulse Rate","94","BEATS/MIN","94",94,"BEATS/MIN","2012-08-27",4,"WEEK 2","Placebo",NA
"01-701-1023",38,"PULSE","Pulse Rate","64","BEATS/MIN","64",64,"BEATS/MIN","2012-09-02",5,"WEEK 4","Placebo",NA
"01-701-1023",39,"PULSE","Pulse Rate","76","BEATS/MIN","76",76,"BEATS/MIN","2012-09-02",5,"WEEK 4","Placebo",NA
"01-701-1023",40,"PULSE","Pulse Rate","70","BEATS/MIN","70",70,"BEATS/MIN","2012-09-02",5,"WEEK 4","Placebo",NA
"01-701-1023",41,"PULSE","Pulse Rate","72","BEATS/MIN","72",72,"BEATS/MIN","2013-02-18",201,"RETRIEVAL","Placebo",NA
"01-701-1023",42,"PULSE","Pulse Rate","84","BEATS/MIN","84",84,"BEATS/MIN","2013-02-18",201,"RETRIEVAL","Placebo",NA
"01-701-1023",43,"PULSE","Pulse Rate","76","BEATS/MIN","76",76,"BEATS/MIN","2013-02-18",201,"RETRIEVAL","Placebo",NA
"01-701-1023",44,"SYSBP","Systolic Blood Pressure","130","mmHg","130",130,"mmHg","2012-07-22",1,"SCREENING 1","Placebo",NA
"01-701-1023",45,"SYSBP","Systolic Blood Pressure","132","mmHg","132",132,"mmHg","2012-07-22",1,"SCREENING 1","Placebo",NA
"01-701-1023",46,"SYSBP","Systolic Blood Pressure","140","mmHg","140",140,"mmHg","2012-07-22",1,"SCREENING 1","Placebo",NA
"01-701-1023",47,"SYSBP","Systolic Blood Pressure","131","mmHg","131",131,"mmHg","2012-08-03",2,"SCREENING 2","Placebo",NA
"01-701-1023",48,"SYSBP","Systolic Blood Pressure","129","mmHg","129",129,"mmHg","2012-08-03",2,"SCREENING 2","Placebo",NA
"01-701-1023",49,"SYSBP","Systolic Blood Pressure","138","mmHg","138",138,"mmHg","2012-08-03",2,"SCREENING 2","Placebo",NA
"01-701-1023",50,"SYSBP","Systolic Blood Pressure","130","mmHg","130",130,"mmHg","2012-08-05",3,"BASELINE","Placebo",NA
"01-701-1023",51,"SYSBP","Systolic Blood Pressure","132","mmHg","132",132,"mmHg","2012-08-05",3,"BASELINE","Placebo",NA
"01-701-1023",52,"SYSBP","Systolic Blood Pressure","132","mmHg","132",132,"mmHg","2012-08-05",3,"BASELINE","Placebo",NA
"01-701-1023",53,"SYSBP","Systolic Blood Pressure","133","mmHg","133",133,"mmHg","2012-08-26",3.5,"AMBUL ECG PLACEMENT","Placebo",NA
"01-701-1023",54,"SYSBP","Systolic Blood Pressure","130","mmHg","130",130,"mmHg","2012-08-26",3.5,"AMBUL ECG PLACEMENT","Placebo",NA
"01-701-1023",55,"SYSBP","Systolic Blood Pressure","138","mmHg","138",138,"mmHg","2012-08-26",3.5,"AMBUL ECG PLACEMENT","Placebo",NA
"01-701-1023",56,"SYSBP","Systolic Blood Pressure","122","mmHg","122",122,"mmHg","2012-08-27",4,"WEEK 2","Placebo",NA
"01-701-1023",57,"SYSBP","Systolic Blood Pressure","130","mmHg","130",130,"mmHg","2012-08-27",4,"WEEK 2","Placebo",NA
"01-701-1023",58,"SYSBP","Systolic Blood Pressure","138","mmHg","138",138,"mmHg","2012-08-27",4,"WEEK 2","Placebo",NA
"01-701-1023",59,"SYSBP","Systolic Blood Pressure","130","mmHg","130",130,"mmHg","2012-09-02",5,"WEEK 4","Placebo",NA
"01-701-1023",60,"SYSBP","Systolic Blood Pressure","134","mmHg","134",134,"mmHg","2012-09-02",5,"WEEK 4","Placebo",NA
"01-701-1023",61,"SYSBP","Systolic Blood Pressure","136","mmHg","136",136,"mmHg","2012-09-02",5,"WEEK 4","Placebo",NA
"01-701-1023",62,"SYSBP","Systolic Blood Pressure","125","mmHg","125",125,"mmHg","2013-02-18",201,"RETRIEVAL","Placebo",NA
"01-701-1023",63,"SYSBP","Systolic Blood Pressure","110","mmHg","110",110,"mmHg","2013-02-18",201,"RETRIEVAL","Placebo",NA
"01-701-1023",64,"SYSBP","Systolic Blood Pressure","130","mmHg","130",130,"mmHg","2013-02-18",201,"RETRIEVAL","Placebo",NA
"01-701-1023",65,"TEMP","Temperature","097.8","F","36.56",36.56,"C","2012-07-22",1,"SCREENING 1","Placebo",NA
"01-701-1023",66,"TEMP","Temperature","097.8","F","36.56",36.56,"C","2012-08-03",2,"SCREENING 2","Placebo",NA
"01-701-1023",67,"TEMP","Temperature","097.3","F","36.28",36.28,"C","2012-08-05",3,"BASELINE","Placebo",NA
"01-701-1023",68,"TEMP","Temperature","097.6","F","36.44",36.44,"C","2012-08-26",3.5,"AMBUL ECG PLACEMENT","Placebo",NA
"01-701-1023",69,"TEMP","Temperature","098.5","F","36.94",36.94,"C","2012-08-27",4,"WEEK 2","Placebo",NA
"01-701-1023",70,"TEMP","Temperature","097.2","F","36.22",36.22,"C","2012-09-02",5,"WEEK 4","Placebo",NA
"01-701-1023",71,"TEMP","Temperature","97.8","F","36.56",36.56,"C","2013-02-18",201,"RETRIEVAL","Placebo",NA
"01-701-1023",72,"WEIGHT","Weight","173.0","LB","78.47",78.47,"kg","2012-07-22",1,"SCREENING 1","Placebo",NA
"01-701-1023",73,"WEIGHT","Weight","177.0","LB","80.29",80.29,"kg","2012-08-05",3,"BASELINE","Placebo",NA
"01-701-1023",74,"WEIGHT","Weight","178.0","LB","80.74",80.74,"kg","2012-08-27",4,"WEEK 2","Placebo",NA
"01-701-1023",75,"WEIGHT","Weight","177.0","LB","80.29",80.29,"kg","2012-09-02",5,"WEEK 4","Placebo",NA
"01-701-1028",1,"DIABP","Diastolic Blood Pressure","76","mmHg","76",76,"mmHg","2013-07-11",1,"SCREENING 1","Xanomeline High Dose",NA
"01-701-1028",2,"DIABP","Diastolic Blood Pressure","70","mmHg","70",70,"mmHg","2013-07-11",1,"SCREENING 1","Xanomeline High Dose",NA
"01-701-1028",3,"DIABP","Diastolic Blood Pressure","73","mmHg","73",73,"mmHg","2013-07-11",1,"SCREENING 1","Xanomeline High Dose",NA
"01-701-1028",4,"DIABP","Diastolic Blood Pressure","76","mmHg","76",76,"mmHg","2013-07-17",2,"SCREENING 2","Xanomeline High Dose",NA
"01-701-1028",5,"DIABP","Diastolic Blood Pressure","76","mmHg","76",76,"mmHg","2013-07-17",2,"SCREENING 2","Xanomeline High Dose",NA
"01-701-1028",6,"DIABP","Diastolic Blood Pressure","85","mmHg","85",85,"mmHg","2013-07-17",2,"SCREENING 2","Xanomeline High Dose",NA
"01-701-1028",7,"DIABP","Diastolic Blood Pressure","85","mmHg","85",85,"mmHg","2013-07-19",3,"BASELINE","Xanomeline High Dose",NA
"01-701-1028",8,"DIABP","Diastolic Blood Pressure","76","mmHg","76",76,"mmHg","2013-07-19",3,"BASELINE","Xanomeline High Dose",NA
"01-701-1028",9,"DIABP","Diastolic Blood Pressure","75","mmHg","75",75,"mmHg","2013-07-19",3,"BASELINE","Xanomeline High Dose",NA
"01-701-1028",10,"DIABP","Diastolic Blood Pressure","82","mmHg","82",82,"mmHg","2013-07-31",3.5,"AMBUL ECG PLACEMENT","Xanomeline High Dose",NA
"01-701-1028",11,"DIABP","Diastolic Blood Pressure","82","mmHg","82",82,"mmHg","2013-07-31",3.5,"AMBUL ECG PLACEMENT","Xanomeline High Dose",NA
"01-701-1028",12,"DIABP","Diastolic Blood Pressure","84","mmHg","84",84,"mmHg","2013-07-31",3.5,"AMBUL ECG PLACEMENT","Xanomeline High Dose",NA
"01-701-1028",13,"DIABP","Diastolic Blood Pressure","78","mmHg","78",78,"mmHg","2013-08-01",4,"WEEK 2","Xanomeline High Dose",NA
"01-701-1028",14,"DIABP","Diastolic Blood Pressure","80","mmHg","80",80,"mmHg","2013-08-01",4,"WEEK 2","Xanomeline High Dose",NA
"01-701-1028",15,"DIABP","Diastolic Blood Pressure","80","mmHg","80",80,"mmHg","2013-08-01",4,"WEEK 2","Xanomeline High Dose",NA
"01-701-1028",16,"DIABP","Diastolic Blood Pressure","69","mmHg","69",69,"mmHg","2013-08-14",5,"WEEK 4","Xanomeline High Dose",NA
"01-701-1028",17,"DIABP","Diastolic Blood Pressure","72","mmHg","72",72,"mmHg","2013-08-14",5,"WEEK 4","Xanomeline High Dose",NA
"01-701-1028",18,"DIABP","Diastolic Blood Pressure","68","mmHg","68",68,"mmHg","2013-08-14",5,"WEEK 4","Xanomeline High Dose",NA
"01-701-1028",19,"DIABP","Diastolic Blood Pressure","76","mmHg","76",76,"mmHg","2013-08-16",6,"AMBUL ECG REMOVAL","Xanomeline High Dose",NA
"01-701-1028",20,"DIABP","Diastolic Blood Pressure","85","mmHg","85",85,"mmHg","2013-08-16",6,"AMBUL ECG REMOVAL","Xanomeline High Dose",NA
"01-701-1028",21,"DIABP","Diastolic Blood Pressure","81","mmHg","81",81,"mmHg","2013-08-16",6,"AMBUL ECG REMOVAL","Xanomeline High Dose",NA
"01-701-1028",22,"DIABP","Diastolic Blood Pressure","69","mmHg","69",69,"mmHg","2013-08-29",7,"WEEK 6","Xanomeline High Dose",NA
"01-701-1028",23,"DIABP","Diastolic Blood Pressure","77","mmHg","77",77,"mmHg","2013-08-29",7,"WEEK 6","Xanomeline High Dose",NA
"01-701-1028",24,"DIABP","Diastolic Blood Pressure","76","mmHg","76",76,"mmHg","2013-08-29",7,"WEEK 6","Xanomeline High Dose",NA
"01-701-1028",25,"DIABP","Diastolic Blood Pressure","76","mmHg","76",76,"mmHg","2013-09-10",8,"WEEK 8","Xanomeline High Dose",NA
"01-701-1028",26,"DIABP","Diastolic Blood Pressure","81","mmHg","81",81,"mmHg","2013-09-10",8,"WEEK 8","Xanomeline High Dose",NA
"01-701-1028",27,"DIABP","Diastolic Blood Pressure","84","mmHg","84",84,"mmHg","2013-09-10",8,"WEEK 8","Xanomeline High Dose",NA
"01-701-1028",28,"DIABP","Diastolic Blood Pressure","74","mmHg","74",74,"mmHg","2013-10-09",9,"WEEK 12","Xanomeline High Dose",NA
"01-701-1028",29,"DIABP","Diastolic Blood Pressure","83","mmHg","83",83,"mmHg","2013-10-09",9,"WEEK 12","Xanomeline High Dose",NA
"01-701-1028",30,"DIABP","Diastolic Blood Pressure","80","mmHg","80",80,"mmHg","2013-10-09",9,"WEEK 12","Xanomeline High Dose",NA
"01-701-1028",31,"DIABP","Diastolic Blood Pressure","75","mmHg","75",75,"mmHg","2013-11-06",10,"WEEK 16","Xanomeline High Dose",NA
"01-701-1028",32,"DIABP","Diastolic Blood Pressure","76","mmHg","76",76,"mmHg","2013-11-06",10,"WEEK 16","Xanomeline High Dose",NA
"01-701-1028",33,"DIABP","Diastolic Blood Pressure","78","mmHg","78",78,"mmHg","2013-11-06",10,"WEEK 16","Xanomeline High Dose",NA
"01-701-1028",34,"DIABP","Diastolic Blood Pressure","79","mmHg","79",79,"mmHg","2013-12-04",11,"WEEK 20","Xanomeline High Dose",NA
"01-701-1028",35,"DIABP","Diastolic Blood Pressure","76","mmHg","76",76,"mmHg","2013-12-04",11,"WEEK 20","Xanomeline High Dose",NA
"01-701-1028",36,"DIABP","Diastolic Blood Pressure","77","mmHg","77",77,"mmHg","2013-12-04",11,"WEEK 20","Xanomeline High Dose",NA
"01-701-1028",37,"DIABP","Diastolic Blood Pressure","73","mmHg","73",73,"mmHg","2014-01-06",12,"WEEK 24","Xanomeline High Dose",NA
"01-701-1028",38,"DIABP","Diastolic Blood Pressure","72","mmHg","72",72,"mmHg","2014-01-06",12,"WEEK 24","Xanomeline High Dose",NA
"01-701-1028",39,"DIABP","Diastolic Blood Pressure","77","mmHg","77",77,"mmHg","2014-01-06",12,"WEEK 24","Xanomeline High Dose",NA
"01-701-1028",40,"DIABP","Diastolic Blood Pressure","70","mmHg","70",70,"mmHg","2014-01-14",13,"WEEK 26","Xanomeline High Dose",NA
"01-701-1028",41,"DIABP","Diastolic Blood Pressure","79","mmHg","79",79,"mmHg","2014-01-14",13,"WEEK 26","Xanomeline High Dose",NA
"01-701-1028",42,"DIABP","Diastolic Blood Pressure","77","mmHg","77",77,"mmHg","2014-01-14",13,"WEEK 26","Xanomeline High Dose",NA
"01-701-1028",43,"HEIGHT","Height","70.0","IN","177.8",177.8,"cm","2013-07-11",1,"SCREENING 1","Xanomeline High Dose",NA
"01-701-1028",44,"PULSE","Pulse Rate","54","BEATS/MIN","54",54,"BEATS/MIN","2013-07-11",1,"SCREENING 1","Xanomeline High Dose",NA
"01-701-1028",45,"PULSE","Pulse Rate","59","BEATS/MIN","59",59,"BEATS/MIN","2013-07-11",1,"SCREENING 1","Xanomeline High Dose",NA
"01-701-1028",46,"PULSE","Pulse Rate","59","BEATS/MIN","59",59,"BEATS/MIN","2013-07-11",1,"SCREENING 1","Xanomeline High Dose",NA
"01-701-1028",47,"PULSE","Pulse Rate","68","BEATS/MIN","68",68,"BEATS/MIN","2013-07-17",2,"SCREENING 2","Xanomeline High Dose",NA
"01-701-1028",48,"PULSE","Pulse Rate","72","BEATS/MIN","72",72,"BEATS/MIN","2013-07-17",2,"SCREENING 2","Xanomeline High Dose",NA
"01-701-1028",49,"PULSE","Pulse Rate","74","BEATS/MIN","74",74,"BEATS/MIN","2013-07-17",2,"SCREENING 2","Xanomeline High Dose",NA
"01-701-1028",50,"PULSE","Pulse Rate","62","BEATS/MIN","62",62,"BEATS/MIN","2013-07-19",3,"BASELINE","Xanomeline High Dose",NA
"01-701-1028",51,"PULSE","Pulse Rate","62","BEATS/MIN","62",62,"BEATS/MIN","2013-07-19",3,"BASELINE","Xanomeline High Dose",NA
"01-701-1028",52,"PULSE","Pulse Rate","66","BEATS/MIN","66",66,"BEATS/MIN","2013-07-19",3,"BASELINE","Xanomeline High Dose",NA
"01-701-1028",53,"PULSE","Pulse Rate","60","BEATS/MIN","60",60,"BEATS/MIN","2013-07-31",3.5,"AMBUL ECG PLACEMENT","Xanomeline High Dose",NA
"01-701-1028",54,"PULSE","Pulse Rate","66","BEATS/MIN","66",66,"BEATS/MIN","2013-07-31",3.5,"AMBUL ECG PLACEMENT","Xanomeline High Dose",NA
"01-701-1028",55,"PULSE","Pulse Rate","65","BEATS/MIN","65",65,"BEATS/MIN","2013-07-31",3.5,"AMBUL ECG PLACEMENT","Xanomeline High Dose",NA
"01-701-1028",56,"PULSE","Pulse Rate","65","BEATS/MIN","65",65,"BEATS/MIN","2013-08-01",4,"WEEK 2","Xanomeline High Dose",NA
"01-701-1028",57,"PULSE","Pulse Rate","77","BEATS/MIN","77",77,"BEATS/MIN","2013-08-01",4,"WEEK 2","Xanomeline High Dose",NA
"01-701-1028",58,"PULSE","Pulse Rate","72","BEATS/MIN","72",72,"BEATS/MIN","2013-08-01",4,"WEEK 2","Xanomeline High Dose",NA
"01-701-1028",59,"PULSE","Pulse Rate","68","BEATS/MIN","68",68,"BEATS/MIN","2013-08-14",5,"WEEK 4","Xanomeline High Dose",NA
"01-701-1028",60,"PULSE","Pulse Rate","81","BEATS/MIN","81",81,"BEATS/MIN","2013-08-14",5,"WEEK 4","Xanomeline High Dose",NA
"01-701-1028",61,"PULSE","Pulse Rate","76","BEATS/MIN","76",76,"BEATS/MIN","2013-08-14",5,"WEEK 4","Xanomeline High Dose",NA
"01-701-1028",62,"PULSE","Pulse Rate","63","BEATS/MIN","63",63,"BEATS/MIN","2013-08-16",6,"AMBUL ECG REMOVAL","Xanomeline High Dose",NA
"01-701-1028",63,"PULSE","Pulse Rate","68","BEATS/MIN","68",68,"BEATS/MIN","2013-08-16",6,"AMBUL ECG REMOVAL","Xanomeline High Dose",NA
"01-701-1028",64,"PULSE","Pulse Rate","70","BEATS/MIN","70",70,"BEATS/MIN","2013-08-16",6,"AMBUL ECG REMOVAL","Xanomeline High Dose",NA
"01-701-1028",65,"PULSE","Pulse Rate","56","BEATS/MIN","56",56,"BEATS/MIN","2013-08-29",7,"WEEK 6","Xanomeline High Dose",NA
"01-701-1028",66,"PULSE","Pulse Rate","60","BEATS/MIN","60",60,"BEATS/MIN","2013-08-29",7,"WEEK 6","Xanomeline High Dose",NA
"01-701-1028",67,"PULSE","Pulse Rate","62","BEATS/MIN","62",62,"BEATS/MIN","2013-08-29",7,"WEEK 6","Xanomeline High Dose",NA
"01-701-1028",68,"PULSE","Pulse Rate","67","BEATS/MIN","67",67,"BEATS/MIN","2013-09-10",8,"WEEK 8","Xanomeline High Dose",NA
"01-701-1028",69,"PULSE","Pulse Rate","76","BEATS/MIN","76",76,"BEATS/MIN","2013-09-10",8,"WEEK 8","Xanomeline High Dose",NA
"01-701-1028",70,"PULSE","Pulse Rate","81","BEATS/MIN","81",81,"BEATS/MIN","2013-09-10",8,"WEEK 8","Xanomeline High Dose",NA
"01-701-1028",71,"PULSE","Pulse Rate","61","BEATS/MIN","61",61,"BEATS/MIN","2013-10-09",9,"WEEK 12","Xanomeline High Dose",NA
"01-701-1028",72,"PULSE","Pulse Rate","64","BEATS/MIN","64",64,"BEATS/MIN","2013-10-09",9,"WEEK 12","Xanomeline High Dose",NA
"01-701-1028",73,"PULSE","Pulse Rate","70","BEATS/MIN","70",70,"BEATS/MIN","2013-10-09",9,"WEEK 12","Xanomeline High Dose",NA
"01-701-1028",74,"PULSE","Pulse Rate","60","BEATS/MIN","60",60,"BEATS/MIN","2013-11-06",10,"WEEK 16","Xanomeline High Dose",NA
"01-701-1028",75,"PULSE","Pulse Rate","70","BEATS/MIN","70",70,"BEATS/MIN","2013-11-06",10,"WEEK 16","Xanomeline High Dose",NA
"01-701-1028",76,"PULSE","Pulse Rate","69","BEATS/MIN","69",69,"BEATS/MIN","2013-11-06",10,"WEEK 16","Xanomeline High Dose",NA
"01-701-1028",77,"PULSE","Pulse Rate","60","BEATS/MIN","60",60,"BEATS/MIN","2013-12-04",11,"WEEK 20","Xanomeline High Dose",NA
"01-701-1028",78,"PULSE","Pulse Rate","67","BEATS/MIN","67",67,"BEATS/MIN","2013-12-04",11,"WEEK 20","Xanomeline High Dose",NA
"01-701-1028",79,"PULSE","Pulse Rate","69","BEATS/MIN","69",69,"BEATS/MIN","2013-12-04",11,"WEEK 20","Xanomeline High Dose",NA
"01-701-1028",80,"PULSE","Pulse Rate","62","BEATS/MIN","62",62,"BEATS/MIN","2014-01-06",12,"WEEK 24","Xanomeline High Dose",NA
"01-701-1028",81,"PULSE","Pulse Rate","72","BEATS/MIN","72",72,"BEATS/MIN","2014-01-06",12,"WEEK 24","Xanomeline High Dose",NA
"01-701-1028",82,"PULSE","Pulse Rate","73","BEATS/MIN","73",73,"BEATS/MIN","2014-01-06",12,"WEEK 24","Xanomeline High Dose",NA
"01-701-1028",83,"PULSE","Pulse Rate","53","BEATS/MIN","53",53,"BEATS/MIN","2014-01-14",13,"WEEK 26","Xanomeline High Dose",NA
"01-701-1028",84,"PULSE","Pulse Rate","58","BEATS/MIN","58",58,"BEATS/MIN","2014-01-14",13,"WEEK 26","Xanomeline High Dose",NA
"01-701-1028",85,"PULSE","Pulse Rate","59","BEATS/MIN","59",59,"BEATS/MIN","2014-01-14",13,"WEEK 26","Xanomeline High Dose",NA
"01-701-1028",86,"SYSBP","Systolic Blood Pressure","143","mmHg","143",143,"mmHg","2013-07-11",1,"SCREENING 1","Xanomeline High Dose",NA
"01-701-1028",87,"SYSBP","Systolic Blood Pressure","140","mmHg","140",140,"mmHg","2013-07-11",1,"SCREENING 1","Xanomeline High Dose",NA
"01-701-1028",88,"SYSBP","Systolic Blood Pressure","132","mmHg","132",132,"mmHg","2013-07-11",1,"SCREENING 1","Xanomeline High Dose",NA
"01-701-1028",89,"SYSBP","Systolic Blood Pressure","122","mmHg","122",122,"mmHg","2013-07-17",2,"SCREENING 2","Xanomeline High Dose",NA
"01-701-1028",90,"SYSBP","Systolic Blood Pressure","142","mmHg","142",142,"mmHg","2013-07-17",2,"SCREENING 2","Xanomeline High Dose",NA
"01-701-1028",91,"SYSBP","Systolic Blood Pressure","132","mmHg","132",132,"mmHg","2013-07-17",2,"SCREENING 2","Xanomeline High Dose",NA
"01-701-1028",92,"SYSBP","Systolic Blood Pressure","138","mmHg","138",138,"mmHg","2013-07-19",3,"BASELINE","Xanomeline High Dose",NA
"01-701-1028",93,"SYSBP","Systolic Blood Pressure","145","mmHg","145",145,"mmHg","2013-07-19",3,"BASELINE","Xanomeline High Dose",NA
"01-701-1028",94,"SYSBP","Systolic Blood Pressure","139","mmHg","139",139,"mmHg","2013-07-19",3,"BASELINE","Xanomeline High Dose",NA
"01-701-1028",95,"SYSBP","Systolic Blood Pressure","138","mmHg","138",138,"mmHg","2013-07-31",3.5,"AMBUL ECG PLACEMENT","Xanomeline High Dose",NA
"01-701-1028",96,"SYSBP","Systolic Blood Pressure","137","mmHg","137",137,"mmHg","2013-07-31",3.5,"AMBUL ECG PLACEMENT","Xanomeline High Dose",NA
"01-701-1028",97,"SYSBP","Systolic Blood Pressure","145","mmHg","145",145,"mmHg","2013-07-31",3.5,"AMBUL ECG PLACEMENT","Xanomeline High Dose",NA
"01-701-1028",98,"SYSBP","Systolic Blood Pressure","134","mmHg","134",134,"mmHg","2013-08-01",4,"WEEK 2","Xanomeline High Dose",NA
"01-701-1028",99,"SYSBP","Systolic Blood Pressure","138","mmHg","138",138,"mmHg","2013-08-01",4,"WEEK 2","Xanomeline High Dose",NA
"01-701-1028",100,"SYSBP","Systolic Blood Pressure","131","mmHg","131",131,"mmHg","2013-08-01",4,"WEEK 2","Xanomeline High Dose",NA
"01-701-1028",101,"SYSBP","Systolic Blood Pressure","130","mmHg","130",130,"mmHg","2013-08-14",5,"WEEK 4","Xanomeline High Dose",NA
"01-701-1028",102,"SYSBP","Systolic Blood Pressure","130","mmHg","130",130,"mmHg","2013-08-14",5,"WEEK 4","Xanomeline High Dose",NA
"01-701-1028",103,"SYSBP","Systolic Blood Pressure","138","mmHg","138",138,"mmHg","2013-08-14",5,"WEEK 4","Xanomeline High Dose",NA
"01-701-1028",104,"SYSBP","Systolic Blood Pressure","138","mmHg","138",138,"mmHg","2013-08-16",6,"AMBUL ECG REMOVAL","Xanomeline High Dose",NA
"01-701-1028",105,"SYSBP","Systolic Blood Pressure","138","mmHg","138",138,"mmHg","2013-08-16",6,"AMBUL ECG REMOVAL","Xanomeline High Dose",NA
"01-701-1028",106,"SYSBP","Systolic Blood Pressure","146","mmHg","146",146,"mmHg","2013-08-16",6,"AMBUL ECG REMOVAL","Xanomeline High Dose",NA
"01-701-1028",107,"SYSBP","Systolic Blood Pressure","131","mmHg","131",131,"mmHg","2013-08-29",7,"WEEK 6","Xanomeline High Dose",NA
"01-701-1028",108,"SYSBP","Systolic Blood Pressure","131","mmHg","131",131,"mmHg","2013-08-29",7,"WEEK 6","Xanomeline High Dose",NA
"01-701-1028",109,"SYSBP","Systolic Blood Pressure","132","mmHg","132",132,"mmHg","2013-08-29",7,"WEEK 6","Xanomeline High Dose",NA
"01-701-1028",110,"SYSBP","Systolic Blood Pressure","137","mmHg","137",137,"mmHg","2013-09-10",8,"WEEK 8","Xanomeline High Dose",NA
"01-701-1028",111,"SYSBP","Systolic Blood Pressure","146","mmHg","146",146,"mmHg","2013-09-10",8,"WEEK 8","Xanomeline High Dose",NA
"01-701-1028",112,"SYSBP","Systolic Blood Pressure","130","mmHg","130",130,"mmHg","2013-09-10",8,"WEEK 8","Xanomeline High Dose",NA
"01-701-1028",113,"SYSBP","Systolic Blood Pressure","128","mmHg","128",128,"mmHg","2013-10-09",9,"WEEK 12","Xanomeline High Dose",NA
"01-701-1028",114,"SYSBP","Systolic Blood Pressure","137","mmHg","137",137,"mmHg","2013-10-09",9,"WEEK 12","Xanomeline High Dose",NA
"01-701-1028",115,"SYSBP","Systolic Blood Pressure","138","mmHg","138",138,"mmHg","2013-10-09",9,"WEEK 12","Xanomeline High Dose",NA
"01-701-1028",116,"SYSBP","Systolic Blood Pressure","122","mmHg","122",122,"mmHg","2013-11-06",10,"WEEK 16","Xanomeline High Dose",NA
"01-701-1028",117,"SYSBP","Systolic Blood Pressure","130","mmHg","130",130,"mmHg","2013-11-06",10,"WEEK 16","Xanomeline High Dose",NA
"01-701-1028",118,"SYSBP","Systolic Blood Pressure","132","mmHg","132",132,"mmHg","2013-11-06",10,"WEEK 16","Xanomeline High Dose",NA
"01-701-1028",119,"SYSBP","Systolic Blood Pressure","129","mmHg","129",129,"mmHg","2013-12-04",11,"WEEK 20","Xanomeline High Dose",NA
"01-701-1028",120,"SYSBP","Systolic Blood Pressure","123","mmHg","123",123,"mmHg","2013-12-04",11,"WEEK 20","Xanomeline High Dose",NA
"01-701-1028",121,"SYSBP","Systolic Blood Pressure","131","mmHg","131",131,"mmHg","2013-12-04",11,"WEEK 20","Xanomeline High Dose",NA
"01-701-1028",122,"SYSBP","Systolic Blood Pressure","130","mmHg","130",130,"mmHg","2014-01-06",12,"WEEK 24","Xanomeline High Dose",NA
"01-701-1028",123,"SYSBP","Systolic Blood Pressure","133","mmHg","133",133,"mmHg","2014-01-06",12,"WEEK 24","Xanomeline High Dose",NA
"01-701-1028",124,"SYSBP","Systolic Blood Pressure","131","mmHg","131",131,"mmHg","2014-01-06",12,"WEEK 24","Xanomeline High Dose",NA
"01-701-1028",125,"SYSBP","Systolic Blood Pressure","131","mmHg","131",131,"mmHg","2014-01-14",13,"WEEK 26","Xanomeline High Dose",NA
"01-701-1028",126,"SYSBP","Systolic Blood Pressure","118","mmHg","118",118,"mmHg","2014-01-14",13,"WEEK 26","Xanomeline High Dose",NA
"01-701-1028",127,"SYSBP","Systolic Blood Pressure","131","mmHg","131",131,"mmHg","2014-01-14",13,"WEEK 26","Xanomeline High Dose",NA
"01-701-1028",128,"TEMP","Temperature","98.5","F","36.94",36.94,"C","2013-07-11",1,"SCREENING 1","Xanomeline High Dose",NA
"01-701-1028",129,"TEMP","Temperature","96.7","F","35.94",35.94,"C","2013-07-17",2,"SCREENING 2","Xanomeline High Dose",NA
"01-701-1028",130,"TEMP","Temperature","98.6","F","37",37,"C","2013-07-19",3,"BASELINE","Xanomeline High Dose",NA
"01-701-1028",131,"TEMP","Temperature","98.2","F","36.78",36.78,"C","2013-07-31",3.5,"AMBUL ECG PLACEMENT","Xanomeline High Dose",NA
"01-701-1028",132,"TEMP","Temperature","99.0","F","37.22",37.22,"C","2013-08-01",4,"WEEK 2","Xanomeline High Dose",NA
"01-701-1028",133,"TEMP","Temperature","98.5","F","36.94",36.94,"C","2013-08-14",5,"WEEK 4","Xanomeline High Dose",NA
"01-701-1028",134,"TEMP","Temperature","98.2","F","36.78",36.78,"C","2013-08-16",6,"AMBUL ECG REMOVAL","Xanomeline High Dose",NA
"01-701-1028",135,"TEMP","Temperature","97.7","F","36.5",36.5,"C","2013-08-29",7,"WEEK 6","Xanomeline High Dose",NA
"01-701-1028",136,"TEMP","Temperature","98.1","F","36.72",36.72,"C","2013-09-10",8,"WEEK 8","Xanomeline High Dose",NA
"01-701-1028",137,"TEMP","Temperature","98.3","F","36.83",36.83,"C","2013-10-09",9,"WEEK 12","Xanomeline High Dose",NA
"01-701-1028",138,"TEMP","Temperature","97.8","F","36.56",36.56,"C","2013-11-06",10,"WEEK 16","Xanomeline High Dose",NA
"01-701-1028",139,"TEMP","Temperature","97.6","F","36.44",36.44,"C","2013-12-04",11,"WEEK 20","Xanomeline High Dose",NA
"01-701-1028",140,"TEMP","Temperature","98.8","F","37.11",37.11,"C","2014-01-06",12,"WEEK 24","Xanomeline High Dose",NA
"01-701-1028",141,"TEMP","Temperature","97.8","F","36.56",36.56,"C","2014-01-14",13,"WEEK 26","Xanomeline High Dose",NA
"01-701-1028",142,"WEIGHT","Weight","218.0","LB","98.88",98.88,"kg","2013-07-11",1,"SCREENING 1","Xanomeline High Dose",NA
"01-701-1028",143,"WEIGHT","Weight","219.0","LB","99.34",99.34,"kg","2013-07-19",3,"BASELINE","Xanomeline High Dose",NA
"01-701-1028",144,"WEIGHT","Weight","219.0","LB","99.34",99.34,"kg","2013-08-01",4,"WEEK 2","Xanomeline High Dose",NA
"01-701-1028",145,"WEIGHT","Weight","218.0","LB","98.88",98.88,"kg","2013-08-14",5,"WEEK 4","Xanomeline High Dose",NA
"01-701-1028",146,"WEIGHT","Weight","217.0","LB","98.43",98.43,"kg","2013-08-29",7,"WEEK 6","Xanomeline High Dose",NA
"01-701-1028",147,"WEIGHT","Weight","219.0","LB","99.34",99.34,"kg","2013-09-10",8,"WEEK 8","Xanomeline High Dose",NA
"01-701-1028",148,"WEIGHT","Weight","218.0","LB","98.88",98.88,"kg","2013-10-09",9,"WEEK 12","Xanomeline High Dose",NA
"01-701-1028",149,"WEIGHT","Weight","220.0","LB","99.79",99.79,"kg","2013-11-06",10,"WEEK 16","Xanomeline High Dose",NA
"01-701-1028",150,"WEIGHT","Weight","220.0","LB","99.79",99.79,"kg","2013-12-04",11,"WEEK 20","Xanomeline High Dose",NA
"01-701-1028",151,"WEIGHT","Weight","219.0","LB","99.34",99.34,"kg","2014-01-06",12,"WEEK 24","Xanomeline High Dose",NA
"01-701-1028",152,"WEIGHT","Weight","220.0","LB","99.79",99.79,"kg","2014-01-14",13,"WEEK 26","Xanomeline High Dose",NA
"01-701-1033",1,"DIABP","Diastolic Blood Pressure","82","mmHg","82",82,"mmHg","2014-03-10",1,"SCREENING 1","Xanomeline Low Dose",NA
"01-701-1033",2,"DIABP","Diastolic Blood Pressure","67","mmHg","67",67,"mmHg","2014-03-10",1,"SCREENING 1","Xanomeline Low Dose",NA
"01-701-1033",3,"DIABP","Diastolic Blood Pressure","72","mmHg","72",72,"mmHg","2014-03-10",1,"SCREENING 1","Xanomeline Low Dose",NA
"01-701-1033",4,"DIABP","Diastolic Blood Pressure","69","mmHg","69",69,"mmHg","2014-03-16",2,"SCREENING 2","Xanomeline Low Dose",NA
"01-701-1033",5,"DIABP","Diastolic Blood Pressure","60","mmHg","60",60,"mmHg","2014-03-16",2,"SCREENING 2","Xanomeline Low Dose",NA
"01-701-1033",6,"DIABP","Diastolic Blood Pressure","62","mmHg","62",62,"mmHg","2014-03-16",2,"SCREENING 2","Xanomeline Low Dose",NA
"01-701-1033",7,"DIABP","Diastolic Blood Pressure","83","mmHg","83",83,"mmHg","2014-03-18",3,"BASELINE","Xanomeline Low Dose",NA
"01-701-1033",8,"DIABP","Diastolic Blood Pressure","67","mmHg","67",67,"mmHg","2014-03-18",3,"BASELINE","Xanomeline Low Dose",NA
"01-701-1033",9,"DIABP","Diastolic Blood Pressure","70","mmHg","70",70,"mmHg","2014-03-18",3,"BASELINE","Xanomeline Low Dose",NA
"01-701-1033",10,"DIABP","Diastolic Blood Pressure","84","mmHg","84",84,"mmHg","2014-03-31",3.5,"AMBUL ECG PLACEMENT","Xanomeline Low Dose",NA
"01-701-1033",11,"DIABP","Diastolic Blood Pressure","81","mmHg","81",81,"mmHg","2014-03-31",3.5,"AMBUL ECG PLACEMENT","Xanomeline Low Dose",NA
"01-701-1033",12,"DIABP","Diastolic Blood Pressure","85","mmHg","85",85,"mmHg","2014-03-31",3.5,"AMBUL ECG PLACEMENT","Xanomeline Low Dose",NA
"01-701-1033",13,"DIABP","Diastolic Blood Pressure","84","mmHg","84",84,"mmHg","2014-04-01",4,"WEEK 2","Xanomeline Low Dose",NA
"01-701-1033",14,"DIABP","Diastolic Blood Pressure","72","mmHg","72",72,"mmHg","2014-04-01",4,"WEEK 2","Xanomeline Low Dose",NA
"01-701-1033",15,"DIABP","Diastolic Blood Pressure","76","mmHg","76",76,"mmHg","2014-04-01",4,"WEEK 2","Xanomeline Low Dose",NA
"01-701-1033",16,"DIABP","Diastolic Blood Pressure","76","mmHg","76",76,"mmHg","2014-04-14",5,"WEEK 4","Xanomeline Low Dose",NA
"01-701-1033",17,"DIABP","Diastolic Blood Pressure","67","mmHg","67",67,"mmHg","2014-04-14",5,"WEEK 4","Xanomeline Low Dose",NA
"01-701-1033",18,"DIABP","Diastolic Blood Pressure","67","mmHg","67",67,"mmHg","2014-04-14",5,"WEEK 4","Xanomeline Low Dose",NA
"01-701-1033",19,"DIABP","Diastolic Blood Pressure","79","mmHg","79",79,"mmHg","2014-09-15",201,"RETRIEVAL","Xanomeline Low Dose",NA
"01-701-1033",20,"DIABP","Diastolic Blood Pressure","71","mmHg","71",71,"mmHg","2014-09-15",201,"RETRIEVAL","Xanomeline Low Dose",NA
"01-701-1033",21,"DIABP","Diastolic Blood Pressure","60","mmHg","60",60,"mmHg","2014-09-15",201,"RETRIEVAL","Xanomeline Low Dose",NA
"01-701-1033",22,"HEIGHT","Height","69.0","IN","175.26",175.26,"cm","2014-03-10",1,"SCREENING 1","Xanomeline Low Dose",NA
"01-701-1033",23,"PULSE","Pulse Rate","59","BEATS/MIN","59",59,"BEATS/MIN","2014-03-10",1,"SCREENING 1","Xanomeline Low Dose",NA
"01-701-1033",24,"PULSE","Pulse Rate","70","BEATS/MIN","70",70,"BEATS/MIN","2014-03-10",1,"SCREENING 1","Xanomeline Low Dose",NA
"01-701-1033",25,"PULSE","Pulse Rate","67","BEATS/MIN","67",67,"BEATS/MIN","2014-03-10",1,"SCREENING 1","Xanomeline Low Dose",NA
"01-701-1033",26,"PULSE","Pulse Rate","67","BEATS/MIN","67",67,"BEATS/MIN","2014-03-16",2,"SCREENING 2","Xanomeline Low Dose",NA
"01-701-1033",27,"PULSE","Pulse Rate","80","BEATS/MIN","80",80,"BEATS/MIN","2014-03-16",2,"SCREENING 2","Xanomeline Low Dose",NA
"01-701-1033",28,"PULSE","Pulse Rate","82","BEATS/MIN","82",82,"BEATS/MIN","2014-03-16",2,"SCREENING 2","Xanomeline Low Dose",NA
"01-701-1033",29,"PULSE","Pulse Rate","55","BEATS/MIN","55",55,"BEATS/MIN","2014-03-18",3,"BASELINE","Xanomeline Low Dose",NA
"01-701-1033",30,"PULSE","Pulse Rate","64","BEATS/MIN","64",64,"BEATS/MIN","2014-03-18",3,"BASELINE","Xanomeline Low Dose",NA
"01-701-1033",31,"PULSE","Pulse Rate","62","BEATS/MIN","62",62,"BEATS/MIN","2014-03-18",3,"BASELINE","Xanomeline Low Dose",NA
"01-701-1033",32,"PULSE","Pulse Rate","62","BEATS/MIN","62",62,"BEATS/MIN","2014-03-31",3.5,"AMBUL ECG PLACEMENT","Xanomeline Low Dose",NA
"01-701-1033",33,"PULSE","Pulse Rate","62","BEATS/MIN","62",62,"BEATS/MIN","2014-03-31",3.5,"AMBUL ECG PLACEMENT","Xanomeline Low Dose",NA
"01-701-1033",34,"PULSE","Pulse Rate","60","BEATS/MIN","60",60,"BEATS/MIN","2014-03-31",3.5,"AMBUL ECG PLACEMENT","Xanomeline Low Dose",NA
"01-701-1033",35,"PULSE","Pulse Rate","59","BEATS/MIN","59",59,"BEATS/MIN","2014-04-01",4,"WEEK 2","Xanomeline Low Dose",NA
"01-701-1033",36,"PULSE","Pulse Rate","62","BEATS/MIN","62",62,"BEATS/MIN","2014-04-01",4,"WEEK 2","Xanomeline Low Dose",NA
"01-701-1033",37,"PULSE","Pulse Rate","62","BEATS/MIN","62",62,"BEATS/MIN","2014-04-01",4,"WEEK 2","Xanomeline Low Dose",NA
"01-701-1033",38,"PULSE","Pulse Rate","54","BEATS/MIN","54",54,"BEATS/MIN","2014-04-14",5,"WEEK 4","Xanomeline Low Dose",NA
"01-701-1033",39,"PULSE","Pulse Rate","57","BEATS/MIN","57",57,"BEATS/MIN","2014-04-14",5,"WEEK 4","Xanomeline Low Dose",NA
"01-701-1033",40,"PULSE","Pulse Rate","58","BEATS/MIN","58",58,"BEATS/MIN","2014-04-14",5,"WEEK 4","Xanomeline Low Dose",NA
"01-701-1033",41,"PULSE","Pulse Rate","50","BEATS/MIN","50",50,"BEATS/MIN","2014-09-15",201,"RETRIEVAL","Xanomeline Low Dose",NA
"01-701-1033",42,"PULSE","Pulse Rate","55","BEATS/MIN","55",55,"BEATS/MIN","2014-09-15",201,"RETRIEVAL","Xanomeline Low Dose",NA
"01-701-1033",43,"PULSE","Pulse Rate","50","BEATS/MIN","50",50,"BEATS/MIN","2014-09-15",201,"RETRIEVAL","Xanomeline Low Dose",NA
"01-701-1033",44,"SYSBP","Systolic Blood Pressure","128","mmHg","128",128,"mmHg","2014-03-10",1,"SCREENING 1","Xanomeline Low Dose",NA
"01-701-1033",45,"SYSBP","Systolic Blood Pressure","117","mmHg","117",117,"mmHg","2014-03-10",1,"SCREENING 1","Xanomeline Low Dose",NA
"01-701-1033",46,"SYSBP","Systolic Blood Pressure","121","mmHg","121",121,"mmHg","2014-03-10",1,"SCREENING 1","Xanomeline Low Dose",NA
"01-701-1033",47,"SYSBP","Systolic Blood Pressure","115","mmHg","115",115,"mmHg","2014-03-16",2,"SCREENING 2","Xanomeline Low Dose",NA
"01-701-1033",48,"SYSBP","Systolic Blood Pressure","102","mmHg","102",102,"mmHg","2014-03-16",2,"SCREENING 2","Xanomeline Low Dose",NA
"01-701-1033",49,"SYSBP","Systolic Blood Pressure","124","mmHg","124",124,"mmHg","2014-03-16",2,"SCREENING 2","Xanomeline Low Dose",NA
"01-701-1033",50,"SYSBP","Systolic Blood Pressure","136","mmHg","136",136,"mmHg","2014-03-18",3,"BASELINE","Xanomeline Low Dose",NA
"01-701-1033",51,"SYSBP","Systolic Blood Pressure","116","mmHg","116",116,"mmHg","2014-03-18",3,"BASELINE","Xanomeline Low Dose",NA
"01-701-1033",52,"SYSBP","Systolic Blood Pressure","121","mmHg","121",121,"mmHg","2014-03-18",3,"BASELINE","Xanomeline Low Dose",NA
"01-701-1033",53,"SYSBP","Systolic Blood Pressure","151","mmHg","151",151,"mmHg","2014-03-31",3.5,"AMBUL ECG PLACEMENT","Xanomeline Low Dose",NA
"01-701-1033",54,"SYSBP","Systolic Blood Pressure","139","mmHg","139",139,"mmHg","2014-03-31",3.5,"AMBUL ECG PLACEMENT","Xanomeline Low Dose",NA
"01-701-1033",55,"SYSBP","Systolic Blood Pressure","139","mmHg","139",139,"mmHg","2014-03-31",3.5,"AMBUL ECG PLACEMENT","Xanomeline Low Dose",NA
"01-701-1033",56,"SYSBP","Systolic Blood Pressure","138","mmHg","138",138,"mmHg","2014-04-01",4,"WEEK 2","Xanomeline Low Dose",NA
"01-701-1033",57,"SYSBP","Systolic Blood Pressure","118","mmHg","118",118,"mmHg","2014-04-01",4,"WEEK 2","Xanomeline Low Dose",NA
"01-701-1033",58,"SYSBP","Systolic Blood Pressure","130","mmHg","130",130,"mmHg","2014-04-01",4,"WEEK 2","Xanomeline Low Dose",NA
"01-701-1033",59,"SYSBP","Systolic Blood Pressure","130","mmHg","130",130,"mmHg","2014-04-14",5,"WEEK 4","Xanomeline Low Dose",NA
"01-701-1033",60,"SYSBP","Systolic Blood Pressure","122","mmHg","122",122,"mmHg","2014-04-14",5,"WEEK 4","Xanomeline Low Dose",NA
"01-701-1033",61,"SYSBP","Systolic Blood Pressure","125","mmHg","125",125,"mmHg","2014-04-14",5,"WEEK 4","Xanomeline Low Dose",NA
"01-701-1033",62,"SYSBP","Systolic Blood Pressure","130","mmHg","130",130,"mmHg","2014-09-15",201,"RETRIEVAL","Xanomeline Low Dose",NA
"01-701-1033",63,"SYSBP","Systolic Blood Pressure","122","mmHg","122",122,"mmHg","2014-09-15",201,"RETRIEVAL","Xanomeline Low Dose",NA
"01-701-1033",64,"SYSBP","Systolic Blood Pressure","123","mmHg","123",123,"mmHg","2014-09-15",201,"RETRIEVAL","Xanomeline Low Dose",NA
"01-701-1033",65,"TEMP","Temperature","98.7","F","37.06",37.06,"C","2014-03-10",1,"SCREENING 1","Xanomeline Low Dose",NA
"01-701-1033",66,"TEMP","Temperature","98.9","F","37.17",37.17,"C","2014-03-16",2,"SCREENING 2","Xanomeline Low Dose",NA
"01-701-1033",67,"TEMP","Temperature","98.8","F","37.11",37.11,"C","2014-03-18",3,"BASELINE","Xanomeline Low Dose",NA
"01-701-1033",68,"TEMP","Temperature","98.0","F","36.67",36.67,"C","2014-03-31",3.5,"AMBUL ECG PLACEMENT","Xanomeline Low Dose",NA
"01-701-1033",69,"TEMP","Temperature","98.1","F","36.72",36.72,"C","2014-04-01",4,"WEEK 2","Xanomeline Low Dose",NA
"01-701-1033",70,"TEMP","Temperature","98.1","F","36.72",36.72,"C","2014-04-14",5,"WEEK 4","Xanomeline Low Dose",NA
"01-701-1033",71,"TEMP","Temperature","98.1","F","36.72",36.72,"C","2014-09-15",201,"RETRIEVAL","Xanomeline Low Dose",NA
"01-701-1033",72,"WEIGHT","Weight","195.0","LB","88.45",88.45,"kg","2014-03-10",1,"SCREENING 1","Xanomeline Low Dose",NA
"01-701-1033",73,"WEIGHT","Weight","195.0","LB","88.45",88.45,"kg","2014-03-18",3,"BASELINE","Xanomeline Low Dose",NA
"01-701-1033",74,"WEIGHT","Weight","197.0","LB","89.36",89.36,"kg","2014-04-01",4,"WEEK 2","Xanomeline Low Dose",NA
"01-701-1033",75,"WEIGHT","Weight","195.0","LB","88.45",88.45,"kg","2014-04-14",5,"WEEK 4","Xanomeline Low Dose",NA
"01-701-1034",1,"DIABP","Diastolic Blood Pressure","58","mmHg","58",58,"mmHg","2014-06-24",1,"SCREENING 1","Xanomeline High Dose",NA
"01-701-1034",2,"DIABP","Diastolic Blood Pressure","73","mmHg","73",73,"mmHg","2014-06-24",1,"SCREENING 1","Xanomeline High Dose",NA
"01-701-1034",3,"DIABP","Diastolic Blood Pressure","79","mmHg","79",79,"mmHg","2014-06-24",1,"SCREENING 1","Xanomeline High Dose",NA
"01-701-1034",4,"DIABP","Diastolic Blood Pressure","62","mmHg","62",62,"mmHg","2014-06-29",2,"SCREENING 2","Xanomeline High Dose",NA
"01-701-1034",5,"DIABP","Diastolic Blood Pressure","81","mmHg","81",81,"mmHg","2014-06-29",2,"SCREENING 2","Xanomeline High Dose",NA
"01-701-1034",6,"DIABP","Diastolic Blood Pressure","69","mmHg","69",69,"mmHg","2014-06-29",2,"SCREENING 2","Xanomeline High Dose",NA
"01-701-1034",7,"DIABP","Diastolic Blood Pressure","60","mmHg","60",60,"mmHg","2014-07-01",3,"BASELINE","Xanomeline High Dose",NA
"01-701-1034",8,"DIABP","Diastolic Blood Pressure","75","mmHg","75",75,"mmHg","2014-07-01",3,"BASELINE","Xanomeline High Dose",NA
"01-701-1034",9,"DIABP","Diastolic Blood Pressure","82","mmHg","82",82,"mmHg","2014-07-01",3,"BASELINE","Xanomeline High Dose",NA
"01-701-1034",10,"DIABP","Diastolic Blood Pressure","81","mmHg","81",81,"mmHg","2014-07-15",4,"WEEK 2","Xanomeline High Dose",NA
"01-701-1034",11,"DIABP","Diastolic Blood Pressure","101","mmHg","101",101,"mmHg","2014-07-15",4,"WEEK 2","Xanomeline High Dose",NA
"01-701-1034",12,"DIABP","Diastolic Blood Pressure","84","mmHg","84",84,"mmHg","2014-07-15",4,"WEEK 2","Xanomeline High Dose",NA
"01-701-1034",13,"DIABP","Diastolic Blood Pressure","71","mmHg","71",71,"mmHg","2014-07-29",5,"WEEK 4","Xanomeline High Dose",NA
"01-701-1034",14,"DIABP","Diastolic Blood Pressure","69","mmHg","69",69,"mmHg","2014-07-29",5,"WEEK 4","Xanomeline High Dose",NA
"01-701-1034",15,"DIABP","Diastolic Blood Pressure","71","mmHg","71",71,"mmHg","2014-07-29",5,"WEEK 4","Xanomeline High Dose",NA
"01-701-1034",16,"DIABP","Diastolic Blood Pressure","54","mmHg","54",54,"mmHg","2014-07-31",6,"AMBUL ECG REMOVAL","Xanomeline High Dose",NA
"01-701-1034",17,"DIABP","Diastolic Blood Pressure","65","mmHg","65",65,"mmHg","2014-07-31",6,"AMBUL ECG REMOVAL","Xanomeline High Dose",NA
"01-701-1034",18,"DIABP","Diastolic Blood Pressure","61","mmHg","61",61,"mmHg","2014-07-31",6,"AMBUL ECG REMOVAL","Xanomeline High Dose",NA
"01-701-1034",19,"DIABP","Diastolic Blood Pressure","57","mmHg","57",57,"mmHg","2014-08-11",7,"WEEK 6","Xanomeline High Dose",NA
"01-701-1034",20,"DIABP","Diastolic Blood Pressure","76","mmHg","76",76,"mmHg","2014-08-11",7,"WEEK 6","Xanomeline High Dose",NA
"01-701-1034",21,"DIABP","Diastolic Blood Pressure","80","mmHg","80",80,"mmHg","2014-08-11",7,"WEEK 6","Xanomeline High Dose",NA
"01-701-1034",22,"DIABP","Diastolic Blood Pressure","73","mmHg","73",73,"mmHg","2014-08-26",8,"WEEK 8","Xanomeline High Dose",NA
"01-701-1034",23,"DIABP","Diastolic Blood Pressure","80","mmHg","80",80,"mmHg","2014-08-26",8,"WEEK 8","Xanomeline High Dose",NA
"01-701-1034",24,"DIABP","Diastolic Blood Pressure","76","mmHg","76",76,"mmHg","2014-08-26",8,"WEEK 8","Xanomeline High Dose",NA
"01-701-1034",25,"DIABP","Diastolic Blood Pressure","71","mmHg","71",71,"mmHg","2014-09-25",9,"WEEK 12","Xanomeline High Dose",NA
"01-701-1034",26,"DIABP","Diastolic Blood Pressure","66","mmHg","66",66,"mmHg","2014-09-25",9,"WEEK 12","Xanomeline High Dose",NA
"01-701-1034",27,"DIABP","Diastolic Blood Pressure","63","mmHg","63",63,"mmHg","2014-09-25",9,"WEEK 12","Xanomeline High Dose",NA
"01-701-1034",28,"DIABP","Diastolic Blood Pressure","87","mmHg","87",87,"mmHg","2014-10-21",10,"WEEK 16","Xanomeline High Dose",NA
"01-701-1034",29,"DIABP","Diastolic Blood Pressure","77","mmHg","77",77,"mmHg","2014-10-21",10,"WEEK 16","Xanomeline High Dose",NA
"01-701-1034",30,"DIABP","Diastolic Blood Pressure","72","mmHg","72",72,"mmHg","2014-10-21",10,"WEEK 16","Xanomeline High Dose",NA
"01-701-1034",31,"DIABP","Diastolic Blood Pressure","78","mmHg","78",78,"mmHg","2014-11-18",11,"WEEK 20","Xanomeline High Dose",NA
"01-701-1034",32,"DIABP","Diastolic Blood Pressure","77","mmHg","77",77,"mmHg","2014-11-18",11,"WEEK 20","Xanomeline High Dose",NA
"01-701-1034",33,"DIABP","Diastolic Blood Pressure","72","mmHg","72",72,"mmHg","2014-11-18",11,"WEEK 20","Xanomeline High Dose",NA
"01-701-1034",34,"DIABP","Diastolic Blood Pressure","81","mmHg","81",81,"mmHg","2014-12-17",12,"WEEK 24","Xanomeline High Dose",NA
"01-701-1034",35,"DIABP","Diastolic Blood Pressure","97","mmHg","97",97,"mmHg","2014-12-17",12,"WEEK 24","Xanomeline High Dose",NA
"01-701-1034",36,"DIABP","Diastolic Blood Pressure","98","mmHg","98",98,"mmHg","2014-12-17",12,"WEEK 24","Xanomeline High Dose",NA
"01-701-1034",37,"DIABP","Diastolic Blood Pressure","67","mmHg","67",67,"mmHg","2014-12-30",13,"WEEK 26","Xanomeline High Dose",NA
"01-701-1034",38,"DIABP","Diastolic Blood Pressure","93","mmHg","93",93,"mmHg","2014-12-30",13,"WEEK 26","Xanomeline High Dose",NA
"01-701-1034",39,"DIABP","Diastolic Blood Pressure","66","mmHg","66",66,"mmHg","2014-12-30",13,"WEEK 26","Xanomeline High Dose",NA
"01-701-1034",40,"HEIGHT","Height","61.0","IN","154.94",154.94,"cm","2014-06-24",1,"SCREENING 1","Xanomeline High Dose",NA
"01-701-1034",41,"PULSE","Pulse Rate","69","BEATS/MIN","69",69,"BEATS/MIN","2014-06-24",1,"SCREENING 1","Xanomeline High Dose",NA
"01-701-1034",42,"PULSE","Pulse Rate","76","BEATS/MIN","76",76,"BEATS/MIN","2014-06-24",1,"SCREENING 1","Xanomeline High Dose",NA
"01-701-1034",43,"PULSE","Pulse Rate","74","BEATS/MIN","74",74,"BEATS/MIN","2014-06-24",1,"SCREENING 1","Xanomeline High Dose",NA
"01-701-1034",44,"PULSE","Pulse Rate","75","BEATS/MIN","75",75,"BEATS/MIN","2014-06-29",2,"SCREENING 2","Xanomeline High Dose",NA
"01-701-1034",45,"PULSE","Pulse Rate","79","BEATS/MIN","79",79,"BEATS/MIN","2014-06-29",2,"SCREENING 2","Xanomeline High Dose",NA
"01-701-1034",46,"PULSE","Pulse Rate","79","BEATS/MIN","79",79,"BEATS/MIN","2014-06-29",2,"SCREENING 2","Xanomeline High Dose",NA
"01-701-1034",47,"PULSE","Pulse Rate","76","BEATS/MIN","76",76,"BEATS/MIN","2014-07-01",3,"BASELINE","Xanomeline High Dose",NA
"01-701-1034",48,"PULSE","Pulse Rate","83","BEATS/MIN","83",83,"BEATS/MIN","2014-07-01",3,"BASELINE","Xanomeline High Dose",NA
"01-701-1034",49,"PULSE","Pulse Rate","80","BEATS/MIN","80",80,"BEATS/MIN","2014-07-01",3,"BASELINE","Xanomeline High Dose",NA
"01-701-1034",50,"PULSE","Pulse Rate","86","BEATS/MIN","86",86,"BEATS/MIN","2014-07-15",4,"WEEK 2","Xanomeline High Dose",NA
"01-701-1034",51,"PULSE","Pulse Rate","91","BEATS/MIN","91",91,"BEATS/MIN","2014-07-15",4,"WEEK 2","Xanomeline High Dose",NA
"01-701-1034",52,"PULSE","Pulse Rate","86","BEATS/MIN","86",86,"BEATS/MIN","2014-07-15",4,"WEEK 2","Xanomeline High Dose",NA
"01-701-1034",53,"PULSE","Pulse Rate","87","BEATS/MIN","87",87,"BEATS/MIN","2014-07-29",5,"WEEK 4","Xanomeline High Dose",NA
"01-701-1034",54,"PULSE","Pulse Rate","91","BEATS/MIN","91",91,"BEATS/MIN","2014-07-29",5,"WEEK 4","Xanomeline High Dose",NA
"01-701-1034",55,"PULSE","Pulse Rate","88","BEATS/MIN","88",88,"BEATS/MIN","2014-07-29",5,"WEEK 4","Xanomeline High Dose",NA
"01-701-1034",56,"PULSE","Pulse Rate","83","BEATS/MIN","83",83,"BEATS/MIN","2014-07-31",6,"AMBUL ECG REMOVAL","Xanomeline High Dose",NA
"01-701-1034",57,"PULSE","Pulse Rate","90","BEATS/MIN","90",90,"BEATS/MIN","2014-07-31",6,"AMBUL ECG REMOVAL","Xanomeline High Dose",NA
"01-701-1034",58,"PULSE","Pulse Rate","86","BEATS/MIN","86",86,"BEATS/MIN","2014-07-31",6,"AMBUL ECG REMOVAL","Xanomeline High Dose",NA
"01-701-1034",59,"PULSE","Pulse Rate","97","BEATS/MIN","97",97,"BEATS/MIN","2014-08-11",7,"WEEK 6","Xanomeline High Dose",NA
"01-701-1034",60,"PULSE","Pulse Rate","93","BEATS/MIN","93",93,"BEATS/MIN","2014-08-11",7,"WEEK 6","Xanomeline High Dose",NA
"01-701-1034",61,"PULSE","Pulse Rate","94","BEATS/MIN","94",94,"BEATS/MIN","2014-08-11",7,"WEEK 6","Xanomeline High Dose",NA
"01-701-1034",62,"PULSE","Pulse Rate","78","BEATS/MIN","78",78,"BEATS/MIN","2014-08-26",8,"WEEK 8","Xanomeline High Dose",NA
"01-701-1034",63,"PULSE","Pulse Rate","71","BEATS/MIN","71",71,"BEATS/MIN","2014-08-26",8,"WEEK 8","Xanomeline High Dose",NA
"01-701-1034",64,"PULSE","Pulse Rate","71","BEATS/MIN","71",71,"BEATS/MIN","2014-08-26",8,"WEEK 8","Xanomeline High Dose",NA
"01-701-1034",65,"PULSE","Pulse Rate","66","BEATS/MIN","66",66,"BEATS/MIN","2014-09-25",9,"WEEK 12","Xanomeline High Dose",NA
"01-701-1034",66,"PULSE","Pulse Rate","70","BEATS/MIN","70",70,"BEATS/MIN","2014-09-25",9,"WEEK 12","Xanomeline High Dose",NA
"01-701-1034",67,"PULSE","Pulse Rate","69","BEATS/MIN","69",69,"BEATS/MIN","2014-09-25",9,"WEEK 12","Xanomeline High Dose",NA
"01-701-1034",68,"PULSE","Pulse Rate","74","BEATS/MIN","74",74,"BEATS/MIN","2014-10-21",10,"WEEK 16","Xanomeline High Dose",NA
"01-701-1034",69,"PULSE","Pulse Rate","79","BEATS/MIN","79",79,"BEATS/MIN","2014-10-21",10,"WEEK 16","Xanomeline High Dose",NA
"01-701-1034",70,"PULSE","Pulse Rate","78","BEATS/MIN","78",78,"BEATS/MIN","2014-10-21",10,"WEEK 16","Xanomeline High Dose",NA
"01-701-1034",71,"PULSE","Pulse Rate","86","BEATS/MIN","86",86,"BEATS/MIN","2014-11-18",11,"WEEK 20","Xanomeline High Dose",NA
"01-701-1034",72,"PULSE","Pulse Rate","84","BEATS/MIN","84",84,"BEATS/MIN","2014-11-18",11,"WEEK 20","Xanomeline High Dose",NA
"01-701-1034",73,"PULSE","Pulse Rate","80","BEATS/MIN","80",80,"BEATS/MIN","2014-11-18",11,"WEEK 20","Xanomeline High Dose",NA
"01-701-1034",74,"PULSE","Pulse Rate","96","BEATS/MIN","96",96,"BEATS/MIN","2014-12-17",12,"WEEK 24","Xanomeline High Dose",NA
"01-701-1034",75,"PULSE","Pulse Rate","97","BEATS/MIN","97",97,"BEATS/MIN","2014-12-17",12,"WEEK 24","Xanomeline High Dose",NA
"01-701-1034",76,"PULSE","Pulse Rate","91","BEATS/MIN","91",91,"BEATS/MIN","2014-12-17",12,"WEEK 24","Xanomeline High Dose",NA
"01-701-1034",77,"PULSE","Pulse Rate","74","BEATS/MIN","74",74,"BEATS/MIN","2014-12-30",13,"WEEK 26","Xanomeline High Dose",NA
"01-701-1034",78,"PULSE","Pulse Rate","86","BEATS/MIN","86",86,"BEATS/MIN","2014-12-30",13,"WEEK 26","Xanomeline High Dose",NA
"01-701-1034",79,"PULSE","Pulse Rate","76","BEATS/MIN","76",76,"BEATS/MIN","2014-12-30",13,"WEEK 26","Xanomeline High Dose",NA
"01-701-1034",80,"SYSBP","Systolic Blood Pressure","160","mmHg","160",160,"mmHg","2014-06-24",1,"SCREENING 1","Xanomeline High Dose",NA
"01-701-1034",81,"SYSBP","Systolic Blood Pressure","183","mmHg","183",183,"mmHg","2014-06-24",1,"SCREENING 1","Xanomeline High Dose",NA
"01-701-1034",82,"SYSBP","Systolic Blood Pressure","151","mmHg","151",151,"mmHg","2014-06-24",1,"SCREENING 1","Xanomeline High Dose",NA
"01-701-1034",83,"SYSBP","Systolic Blood Pressure","158","mmHg","158",158,"mmHg","2014-06-29",2,"SCREENING 2","Xanomeline High Dose",NA
"01-701-1034",84,"SYSBP","Systolic Blood Pressure","155","mmHg","155",155,"mmHg","2014-06-29",2,"SCREENING 2","Xanomeline High Dose",NA
"01-701-1034",85,"SYSBP","Systolic Blood Pressure","155","mmHg","155",155,"mmHg","2014-06-29",2,"SCREENING 2","Xanomeline High Dose",NA
"01-701-1034",86,"SYSBP","Systolic Blood Pressure","163","mmHg","163",163,"mmHg","2014-07-01",3,"BASELINE","Xanomeline High Dose",NA
"01-701-1034",87,"SYSBP","Systolic Blood Pressure","177","mmHg","177",177,"mmHg","2014-07-01",3,"BASELINE","Xanomeline High Dose",NA
"01-701-1034",88,"SYSBP","Systolic Blood Pressure","168","mmHg","168",168,"mmHg","2014-07-01",3,"BASELINE","Xanomeline High Dose",NA
"01-701-1034",89,"SYSBP","Systolic Blood Pressure","183","mmHg","183",183,"mmHg","2014-07-15",4,"WEEK 2","Xanomeline High Dose",NA
"01-701-1034",90,"SYSBP","Systolic Blood Pressure","191","mmHg","191",191,"mmHg","2014-07-15",4,"WEEK 2","Xanomeline High Dose",NA
"01-701-1034",91,"SYSBP","Systolic Blood Pressure","161","mmHg","161",161,"mmHg","2014-07-15",4,"WEEK 2","Xanomeline High Dose",NA
"01-701-1034",92,"SYSBP","Systolic Blood Pressure","165","mmHg","165",165,"mmHg","2014-07-29",5,"WEEK 4","Xanomeline High Dose",NA
"01-701-1034",93,"SYSBP","Systolic Blood Pressure","170","mmHg","170",170,"mmHg","2014-07-29",5,"WEEK 4","Xanomeline High Dose",NA
"01-701-1034",94,"SYSBP","Systolic Blood Pressure","169","mmHg","169",169,"mmHg","2014-07-29",5,"WEEK 4","Xanomeline High Dose",NA
"01-701-1034",95,"SYSBP","Systolic Blood Pressure","140","mmHg","140",140,"mmHg","2014-07-31",6,"AMBUL ECG REMOVAL","Xanomeline High Dose",NA
"01-701-1034",96,"SYSBP","Systolic Blood Pressure","166","mmHg","166",166,"mmHg","2014-07-31",6,"AMBUL ECG REMOVAL","Xanomeline High Dose",NA
"01-701-1034",97,"SYSBP","Systolic Blood Pressure","159","mmHg","159",159,"mmHg","2014-07-31",6,"AMBUL ECG REMOVAL","Xanomeline High Dose",NA
"01-701-1034",98,"SYSBP","Systolic Blood Pressure","145","mmHg","145",145,"mmHg","2014-08-11",7,"WEEK 6","Xanomeline High Dose",NA
"01-701-1034",99,"SYSBP","Systolic Blood Pressure","174","mmHg","174",174,"mmHg","2014-08-11",7,"WEEK 6","Xanomeline High Dose",NA
"01-701-1034",100,"SYSBP","Systolic Blood Pressure","170","mmHg","170",170,"mmHg","2014-08-11",7,"WEEK 6","Xanomeline High Dose",NA
"01-701-1034",101,"SYSBP","Systolic Blood Pressure","188","mmHg","188",188,"mmHg","2014-08-26",8,"WEEK 8","Xanomeline High Dose",NA
"01-701-1034",102,"SYSBP","Systolic Blood Pressure","197","mmHg","197",197,"mmHg","2014-08-26",8,"WEEK 8","Xanomeline High Dose",NA
"01-701-1034",103,"SYSBP","Systolic Blood Pressure","198","mmHg","198",198,"mmHg","2014-08-26",8,"WEEK 8","Xanomeline High Dose",NA
"01-701-1034",104,"SYSBP","Systolic Blood Pressure","145","mmHg","145",145,"mmHg","2014-09-25",9,"WEEK 12","Xanomeline High Dose",NA
"01-701-1034",105,"SYSBP","Systolic Blood Pressure","150","mmHg","150",150,"mmHg","2014-09-25",9,"WEEK 12","Xanomeline High Dose",NA
"01-701-1034",106,"SYSBP","Systolic Blood Pressure","177","mmHg","177",177,"mmHg","2014-09-25",9,"WEEK 12","Xanomeline High Dose",NA
"01-701-1034",107,"SYSBP","Systolic Blood Pressure","154","mmHg","154",154,"mmHg","2014-10-21",10,"WEEK 16","Xanomeline High Dose",NA
"01-701-1034",108,"SYSBP","Systolic Blood Pressure","183","mmHg","183",183,"mmHg","2014-10-21",10,"WEEK 16","Xanomeline High Dose",NA
"01-701-1034",109,"SYSBP","Systolic Blood Pressure","186","mmHg","186",186,"mmHg","2014-10-21",10,"WEEK 16","Xanomeline High Dose",NA
"01-701-1034",110,"SYSBP","Systolic Blood Pressure","167","mmHg","167",167,"mmHg","2014-11-18",11,"WEEK 20","Xanomeline High Dose",NA
"01-701-1034",111,"SYSBP","Systolic Blood Pressure","181","mmHg","181",181,"mmHg","2014-11-18",11,"WEEK 20","Xanomeline High Dose",NA
"01-701-1034",112,"SYSBP","Systolic Blood Pressure","185","mmHg","185",185,"mmHg","2014-11-18",11,"WEEK 20","Xanomeline High Dose",NA
"01-701-1034",113,"SYSBP","Systolic Blood Pressure","178","mmHg","178",178,"mmHg","2014-12-17",12,"WEEK 24","Xanomeline High Dose",NA
"01-701-1034",114,"SYSBP","Systolic Blood Pressure","198","mmHg","198",198,"mmHg","2014-12-17",12,"WEEK 24","Xanomeline High Dose",NA
"01-701-1034",115,"SYSBP","Systolic Blood Pressure","164","mmHg","164",164,"mmHg","2014-12-17",12,"WEEK 24","Xanomeline High Dose",NA
"01-701-1034",116,"SYSBP","Systolic Blood Pressure","154","mmHg","154",154,"mmHg","2014-12-30",13,"WEEK 26","Xanomeline High Dose",NA
"01-701-1034",117,"SYSBP","Systolic Blood Pressure","150","mmHg","150",150,"mmHg","2014-12-30",13,"WEEK 26","Xanomeline High Dose",NA
"01-701-1034",118,"SYSBP","Systolic Blood Pressure","179","mmHg","179",179,"mmHg","2014-12-30",13,"WEEK 26","Xanomeline High Dose",NA
"01-701-1034",119,"TEMP","Temperature","97.2","F","36.22",36.22,"C","2014-06-24",1,"SCREENING 1","Xanomeline High Dose",NA
"01-701-1034",120,"TEMP","Temperature","97.7","F","36.5",36.5,"C","2014-06-29",2,"SCREENING 2","Xanomeline High Dose",NA
"01-701-1034",121,"TEMP","Temperature","98.5","F","36.94",36.94,"C","2014-07-01",3,"BASELINE","Xanomeline High Dose",NA
"01-701-1034",122,"TEMP","Temperature","97.8","F","36.56",36.56,"C","2014-07-15",4,"WEEK 2","Xanomeline High Dose",NA
"01-701-1034",123,"TEMP","Temperature","97.9","F","36.61",36.61,"C","2014-07-29",5,"WEEK 4","Xanomeline High Dose",NA
"01-701-1034",124,"TEMP","Temperature","98.3","F","36.83",36.83,"C","2014-07-31",6,"AMBUL ECG REMOVAL","Xanomeline High Dose",NA
"01-701-1034",125,"TEMP","Temperature","98.7","F","37.06",37.06,"C","2014-08-11",7,"WEEK 6","Xanomeline High Dose",NA
"01-701-1034",126,"TEMP","Temperature","98.1","F","36.72",36.72,"C","2014-08-26",8,"WEEK 8","Xanomeline High Dose",NA
"01-701-1034",127,"TEMP","Temperature","98.7","F","37.06",37.06,"C","2014-09-25",9,"WEEK 12","Xanomeline High Dose",NA
"01-701-1034",128,"TEMP","Temperature","98.5","F","36.94",36.94,"C","2014-10-21",10,"WEEK 16","Xanomeline High Dose",NA
"01-701-1034",129,"TEMP","Temperature","98.4","F","36.89",36.89,"C","2014-11-18",11,"WEEK 20","Xanomeline High Dose",NA
"01-701-1034",130,"TEMP","Temperature","98.1","F","36.72",36.72,"C","2014-12-17",12,"WEEK 24","Xanomeline High Dose",NA
"01-701-1034",131,"TEMP","Temperature","97.8","F","36.56",36.56,"C","2014-12-30",13,"WEEK 26","Xanomeline High Dose",NA
"01-701-1034",132,"WEIGHT","Weight","140.0","LB","63.5",63.5,"kg","2014-06-24",1,"SCREENING 1","Xanomeline High Dose",NA
"01-701-1034",133,"WEIGHT","Weight","138.0","LB","62.6",62.6,"kg","2014-07-01",3,"BASELINE","Xanomeline High Dose",NA
"01-701-1034",134,"WEIGHT","Weight","138.0","LB","62.6",62.6,"kg","2014-07-15",4,"WEEK 2","Xanomeline High Dose",NA
"01-701-1034",135,"WEIGHT","Weight","141.0","LB","63.96",63.96,"kg","2014-07-29",5,"WEEK 4","Xanomeline High Dose",NA
"01-701-1034",136,"WEIGHT","Weight","141.0","LB","63.96",63.96,"kg","2014-08-11",7,"WEEK 6","Xanomeline High Dose",NA
"01-701-1034",137,"WEIGHT","Weight","139.0","LB","63.05",63.05,"kg","2014-08-26",8,"WEEK 8","Xanomeline High Dose",NA
"01-701-1034",138,"WEIGHT","Weight","139.0","LB","63.05",63.05,"kg","2014-09-25",9,"WEEK 12","Xanomeline High Dose",NA
"01-701-1034",139,"WEIGHT","Weight","142.0","LB","64.41",64.41,"kg","2014-10-21",10,"WEEK 16","Xanomeline High Dose",NA
"01-701-1034",140,"WEIGHT","Weight","143.0","LB","64.86",64.86,"kg","2014-11-18",11,"WEEK 20","Xanomeline High Dose",NA
"01-701-1034",141,"WEIGHT","Weight","144.0","LB","65.32",65.32,"kg","2014-12-17",12,"WEEK 24","Xanomeline High Dose",NA
"01-701-1034",142,"WEIGHT","Weight","141.0","LB","63.96",63.96,"kg","2014-12-30",13,"WEEK 26","Xanomeline High Dose",NA
"01-701-1047",1,"DIABP","Diastolic Blood Pressure","68","mmHg","68",68,"mmHg","2013-01-22",1,"SCREENING 1","Placebo",NA
"01-701-1047",2,"DIABP","Diastolic Blood Pressure","71","mmHg","71",71,"mmHg","2013-01-22",1,"SCREENING 1","Placebo",NA
"01-701-1047",3,"DIABP","Diastolic Blood Pressure","83","mmHg","83",83,"mmHg","2013-01-22",1,"SCREENING 1","Placebo",NA
"01-701-1047",4,"DIABP","Diastolic Blood Pressure","65","mmHg","65",65,"mmHg","2013-02-10",2,"SCREENING 2","Placebo",NA
"01-701-1047",5,"DIABP","Diastolic Blood Pressure","86","mmHg","86",86,"mmHg","2013-02-10",2,"SCREENING 2","Placebo",NA
"01-701-1047",6,"DIABP","Diastolic Blood Pressure","71","mmHg","71",71,"mmHg","2013-02-10",2,"SCREENING 2","Placebo",NA
"01-701-1047",7,"DIABP","Diastolic Blood Pressure","61","mmHg","61",61,"mmHg","2013-02-12",3,"BASELINE","Placebo",NA
"01-701-1047",8,"DIABP","Diastolic Blood Pressure","68","mmHg","68",68,"mmHg","2013-02-12",3,"BASELINE","Placebo",NA
"01-701-1047",9,"DIABP","Diastolic Blood Pressure","78","mmHg","78",78,"mmHg","2013-02-12",3,"BASELINE","Placebo",NA
"01-701-1047",10,"DIABP","Diastolic Blood Pressure","72","mmHg","72",72,"mmHg","2013-02-24",3.5,"AMBUL ECG PLACEMENT","Placebo",NA
"01-701-1047",11,"DIABP","Diastolic Blood Pressure","56","mmHg","56",56,"mmHg","2013-02-24",3.5,"AMBUL ECG PLACEMENT","Placebo",NA
"01-701-1047",12,"DIABP","Diastolic Blood Pressure","73","mmHg","73",73,"mmHg","2013-02-24",3.5,"AMBUL ECG PLACEMENT","Placebo",NA
"01-701-1047",13,"DIABP","Diastolic Blood Pressure","72","mmHg","72",72,"mmHg","2013-02-25",4,"WEEK 2","Placebo",NA
"01-701-1047",14,"DIABP","Diastolic Blood Pressure","84","mmHg","84",84,"mmHg","2013-02-25",4,"WEEK 2","Placebo",NA
"01-701-1047",15,"DIABP","Diastolic Blood Pressure","73","mmHg","73",73,"mmHg","2013-02-25",4,"WEEK 2","Placebo",NA
"01-701-1047",16,"DIABP","Diastolic Blood Pressure","72","mmHg","72",72,"mmHg","2013-03-10",5,"WEEK 4","Placebo",NA
"01-701-1047",17,"DIABP","Diastolic Blood Pressure","71","mmHg","71",71,"mmHg","2013-03-10",5,"WEEK 4","Placebo",NA
"01-701-1047",18,"DIABP","Diastolic Blood Pressure","78","mmHg","78",78,"mmHg","2013-03-10",5,"WEEK 4","Placebo",NA
"01-701-1047",19,"DIABP","Diastolic Blood Pressure","71","mmHg","71",71,"mmHg","2013-03-29",6,"AMBUL ECG REMOVAL","Placebo",NA
"01-701-1047",20,"DIABP","Diastolic Blood Pressure","63","mmHg","63",63,"mmHg","2013-03-29",6,"AMBUL ECG REMOVAL","Placebo",NA
"01-701-1047",21,"DIABP","Diastolic Blood Pressure","57","mmHg","57",57,"mmHg","2013-03-29",6,"AMBUL ECG REMOVAL","Placebo",NA
"01-701-1047",22,"DIABP","Diastolic Blood Pressure","76","mmHg","76",76,"mmHg","2013-07-28",201,"RETRIEVAL","Placebo",NA
"01-701-1047",23,"DIABP","Diastolic Blood Pressure","71","mmHg","71",71,"mmHg","2013-07-28",201,"RETRIEVAL","Placebo",NA
"01-701-1047",24,"DIABP","Diastolic Blood Pressure","65","mmHg","65",65,"mmHg","2013-07-28",201,"RETRIEVAL","Placebo",NA
"01-701-1047",25,"HEIGHT","Height","58.5","IN","148.59",148.59,"cm","2013-01-22",1,"SCREENING 1","Placebo",NA
"01-701-1047",26,"PULSE","Pulse Rate","53","BEATS/MIN","53",53,"BEATS/MIN","2013-01-22",1,"SCREENING 1","Placebo",NA
"01-701-1047",27,"PULSE","Pulse Rate","64","BEATS/MIN","64",64,"BEATS/MIN","2013-01-22",1,"SCREENING 1","Placebo",NA
"01-701-1047",28,"PULSE","Pulse Rate","61","BEATS/MIN","61",61,"BEATS/MIN","2013-01-22",1,"SCREENING 1","Placebo",NA
"01-701-1047",29,"PULSE","Pulse Rate","58","BEATS/MIN","58",58,"BEATS/MIN","2013-02-10",2,"SCREENING 2","Placebo",NA
"01-701-1047",30,"PULSE","Pulse Rate","74","BEATS/MIN","74",74,"BEATS/MIN","2013-02-10",2,"SCREENING 2","Placebo",NA
"01-701-1047",31,"PULSE","Pulse Rate","73","BEATS/MIN","73",73,"BEATS/MIN","2013-02-10",2,"SCREENING 2","Placebo",NA
"01-701-1047",32,"PULSE","Pulse Rate","58","BEATS/MIN","58",58,"BEATS/MIN","2013-02-12",3,"BASELINE","Placebo",NA
"01-701-1047",33,"PULSE","Pulse Rate","67","BEATS/MIN","67",67,"BEATS/MIN","2013-02-12",3,"BASELINE","Placebo",NA
"01-701-1047",34,"PULSE","Pulse Rate","67","BEATS/MIN","67",67,"BEATS/MIN","2013-02-12",3,"BASELINE","Placebo",NA
"01-701-1047",35,"PULSE","Pulse Rate","62","BEATS/MIN","62",62,"BEATS/MIN","2013-02-24",3.5,"AMBUL ECG PLACEMENT","Placebo",NA
"01-701-1047",36,"PULSE","Pulse Rate","74","BEATS/MIN","74",74,"BEATS/MIN","2013-02-24",3.5,"AMBUL ECG PLACEMENT","Placebo",NA
"01-701-1047",37,"PULSE","Pulse Rate","72","BEATS/MIN","72",72,"BEATS/MIN","2013-02-24",3.5,"AMBUL ECG PLACEMENT","Placebo",NA
"01-701-1047",38,"PULSE","Pulse Rate","66","BEATS/MIN","66",66,"BEATS/MIN","2013-02-25",4,"WEEK 2","Placebo",NA
"01-701-1047",39,"PULSE","Pulse Rate","75","BEATS/MIN","75",75,"BEATS/MIN","2013-02-25",4,"WEEK 2","Placebo",NA
"01-701-1047",40,"PULSE","Pulse Rate","78","BEATS/MIN","78",78,"BEATS/MIN","2013-02-25",4,"WEEK 2","Placebo",NA
"01-701-1047",41,"PULSE","Pulse Rate","69","BEATS/MIN","69",69,"BEATS/MIN","2013-03-10",5,"WEEK 4","Placebo",NA
"01-701-1047",42,"PULSE","Pulse Rate","64","BEATS/MIN","64",64,"BEATS/MIN","2013-03-10",5,"WEEK 4","Placebo",NA
"01-701-1047",43,"PULSE","Pulse Rate","70","BEATS/MIN","70",70,"BEATS/MIN","2013-03-10",5,"WEEK 4","Placebo",NA
"01-701-1047",44,"PULSE","Pulse Rate","78","BEATS/MIN","78",78,"BEATS/MIN","2013-03-29",6,"AMBUL ECG REMOVAL","Placebo",NA
"01-701-1047",45,"PULSE","Pulse Rate","90","BEATS/MIN","90",90,"BEATS/MIN","2013-03-29",6,"AMBUL ECG REMOVAL","Placebo",NA
"01-701-1047",46,"PULSE","Pulse Rate","87","BEATS/MIN","87",87,"BEATS/MIN","2013-03-29",6,"AMBUL ECG REMOVAL","Placebo",NA
"01-701-1047",47,"PULSE","Pulse Rate","58","BEATS/MIN","58",58,"BEATS/MIN","2013-07-28",201,"RETRIEVAL","Placebo",NA
"01-701-1047",48,"PULSE","Pulse Rate","72","BEATS/MIN","72",72,"BEATS/MIN","2013-07-28",201,"RETRIEVAL","Placebo",NA
"01-701-1047",49,"PULSE","Pulse Rate","72","BEATS/MIN","72",72,"BEATS/MIN","2013-07-28",201,"RETRIEVAL","Placebo",NA
"01-701-1047",50,"SYSBP","Systolic Blood Pressure","165","mmHg","165",165,"mmHg","2013-01-22",1,"SCREENING 1","Placebo",NA
"01-701-1047",51,"SYSBP","Systolic Blood Pressure","162","mmHg","162",162,"mmHg","2013-01-22",1,"SCREENING 1","Placebo",NA
"01-701-1047",52,"SYSBP","Systolic Blood Pressure","161","mmHg","161",161,"mmHg","2013-01-22",1,"SCREENING 1","Placebo",NA
"01-701-1047",53,"SYSBP","Systolic Blood Pressure","159","mmHg","159",159,"mmHg","2013-02-10",2,"SCREENING 2","Placebo",NA
"01-701-1047",54,"SYSBP","Systolic Blood Pressure","152","mmHg","152",152,"mmHg","2013-02-10",2,"SCREENING 2","Placebo",NA
"01-701-1047",55,"SYSBP","Systolic Blood Pressure","138","mmHg","138",138,"mmHg","2013-02-10",2,"SCREENING 2","Placebo",NA
"01-701-1047",56,"SYSBP","Systolic Blood Pressure","151","mmHg","151",151,"mmHg","2013-02-12",3,"BASELINE","Placebo",NA
"01-701-1047",57,"SYSBP","Systolic Blood Pressure","145","mmHg","145",145,"mmHg","2013-02-12",3,"BASELINE","Placebo",NA
"01-701-1047",58,"SYSBP","Systolic Blood Pressure","167","mmHg","167",167,"mmHg","2013-02-12",3,"BASELINE","Placebo",NA
"01-701-1047",59,"SYSBP","Systolic Blood Pressure","146","mmHg","146",146,"mmHg","2013-02-24",3.5,"AMBUL ECG PLACEMENT","Placebo",NA
"01-701-1047",60,"SYSBP","Systolic Blood Pressure","137","mmHg","137",137,"mmHg","2013-02-24",3.5,"AMBUL ECG PLACEMENT","Placebo",NA
"01-701-1047",61,"SYSBP","Systolic Blood Pressure","148","mmHg","148",148,"mmHg","2013-02-24",3.5,"AMBUL ECG PLACEMENT","Placebo",NA
"01-701-1047",62,"SYSBP","Systolic Blood Pressure","145","mmHg","145",145,"mmHg","2013-02-25",4,"WEEK 2","Placebo",NA
"01-701-1047",63,"SYSBP","Systolic Blood Pressure","146","mmHg","146",146,"mmHg","2013-02-25",4,"WEEK 2","Placebo",NA
"01-701-1047",64,"SYSBP","Systolic Blood Pressure","153","mmHg","153",153,"mmHg","2013-02-25",4,"WEEK 2","Placebo",NA
"01-701-1047",65,"SYSBP","Systolic Blood Pressure","135","mmHg","135",135,"mmHg","2013-03-10",5,"WEEK 4","Placebo",NA
"01-701-1047",66,"SYSBP","Systolic Blood Pressure","145","mmHg","145",145,"mmHg","2013-03-10",5,"WEEK 4","Placebo",NA
"01-701-1047",67,"SYSBP","Systolic Blood Pressure","143","mmHg","143",143,"mmHg","2013-03-10",5,"WEEK 4","Placebo",NA
"01-701-1047",68,"SYSBP","Systolic Blood Pressure","123","mmHg","123",123,"mmHg","2013-03-29",6,"AMBUL ECG REMOVAL","Placebo",NA
"01-701-1047",69,"SYSBP","Systolic Blood Pressure","115","mmHg","115",115,"mmHg","2013-03-29",6,"AMBUL ECG REMOVAL","Placebo",NA
"01-701-1047",70,"SYSBP","Systolic Blood Pressure","123","mmHg","123",123,"mmHg","2013-03-29",6,"AMBUL ECG REMOVAL","Placebo",NA
"01-701-1047",71,"SYSBP","Systolic Blood Pressure","139","mmHg","139",139,"mmHg","2013-07-28",201,"RETRIEVAL","Placebo",NA
"01-701-1047",72,"SYSBP","Systolic Blood Pressure","130","mmHg","130",130,"mmHg","2013-07-28",201,"RETRIEVAL","Placebo",NA
"01-701-1047",73,"SYSBP","Systolic Blood Pressure","139","mmHg","139",139,"mmHg","2013-07-28",201,"RETRIEVAL","Placebo",NA
"01-701-1047",74,"TEMP","Temperature","97.9","F","36.61",36.61,"C","2013-02-10",2,"SCREENING 2","Placebo",NA
"01-701-1047",75,"TEMP","Temperature","97.5","F","36.39",36.39,"C","2013-02-12",3,"BASELINE","Placebo",NA
"01-701-1047",76,"TEMP","Temperature","97.0","F","36.11",36.11,"C","2013-02-24",3.5,"AMBUL ECG PLACEMENT","Placebo",NA
"01-701-1047",77,"TEMP","Temperature","98.9","F","37.17",37.17,"C","2013-02-25",4,"WEEK 2","Placebo",NA
"01-701-1047",78,"TEMP","Temperature","97.8","F","36.56",36.56,"C","2013-03-10",5,"WEEK 4","Placebo",NA
"01-701-1047",79,"TEMP","Temperature","98.5","F","36.94",36.94,"C","2013-03-29",6,"AMBUL ECG REMOVAL","Placebo",NA
"01-701-1047",80,"TEMP","Temperature","98.4","F","36.89",36.89,"C","2013-07-28",201,"RETRIEVAL","Placebo",NA
"01-701-1047",81,"WEIGHT","Weight","146.0","LB","66.23",66.23,"kg","2013-01-22",1,"SCREENING 1","Placebo",NA
"01-701-1047",82,"WEIGHT","Weight","148.0","LB","67.13",67.13,"kg","2013-02-12",3,"BASELINE","Placebo",NA
"01-701-1047",83,"WEIGHT","Weight","149.0","LB","67.59",67.59,"kg","2013-02-25",4,"WEEK 2","Placebo",NA
"01-701-1047",84,"WEIGHT","Weight","149.0","LB","67.59",67.59,"kg","2013-03-10",5,"WEEK 4","Placebo",NA
"01-701-1047",85,"WEIGHT","Weight","148.0","LB","67.13",67.13,"kg","2013-03-29",6,"AMBUL ECG REMOVAL","Placebo",NA
"01-701-1097",1,"DIABP","Diastolic Blood Pressure","72","mmHg","72",72,"mmHg","2013-12-23",1,"SCREENING 1","Xanomeline Low Dose",NA
"01-701-1097",2,"DIABP","Diastolic Blood Pressure","74","mmHg","74",74,"mmHg","2013-12-23",1,"SCREENING 1","Xanomeline Low Dose",NA
"01-701-1097",3,"DIABP","Diastolic Blood Pressure","79","mmHg","79",79,"mmHg","2013-12-23",1,"SCREENING 1","Xanomeline Low Dose",NA
"01-701-1097",4,"DIABP","Diastolic Blood Pressure","65","mmHg","65",65,"mmHg","2013-12-30",2,"SCREENING 2","Xanomeline Low Dose",NA
"01-701-1097",5,"DIABP","Diastolic Blood Pressure","76","mmHg","76",76,"mmHg","2013-12-30",2,"SCREENING 2","Xanomeline Low Dose",NA
"01-701-1097",6,"DIABP","Diastolic Blood Pressure","80","mmHg","80",80,"mmHg","2013-12-30",2,"SCREENING 2","Xanomeline Low Dose",NA
"01-701-1097",7,"DIABP","Diastolic Blood Pressure","72","mmHg","72",72,"mmHg","2014-01-01",3,"BASELINE","Xanomeline Low Dose",NA
"01-701-1097",8,"DIABP","Diastolic Blood Pressure","78","mmHg","78",78,"mmHg","2014-01-01",3,"BASELINE","Xanomeline Low Dose",NA
"01-701-1097",9,"DIABP","Diastolic Blood Pressure","80","mmHg","80",80,"mmHg","2014-01-01",3,"BASELINE","Xanomeline Low Dose",NA
"01-701-1097",10,"DIABP","Diastolic Blood Pressure","67","mmHg","67",67,"mmHg","2014-01-14",3.5,"AMBUL ECG PLACEMENT","Xanomeline Low Dose",NA
"01-701-1097",11,"DIABP","Diastolic Blood Pressure","79","mmHg","79",79,"mmHg","2014-01-14",3.5,"AMBUL ECG PLACEMENT","Xanomeline Low Dose",NA
"01-701-1097",12,"DIABP","Diastolic Blood Pressure","67","mmHg","67",67,"mmHg","2014-01-14",3.5,"AMBUL ECG PLACEMENT","Xanomeline Low Dose",NA
"01-701-1097",13,"DIABP","Diastolic Blood Pressure","72","mmHg","72",72,"mmHg","2014-01-15",4,"WEEK 2","Xanomeline Low Dose",NA
"01-701-1097",14,"DIABP","Diastolic Blood Pressure","82","mmHg","82",82,"mmHg","2014-01-15",4,"WEEK 2","Xanomeline Low Dose",NA
"01-701-1097",15,"DIABP","Diastolic Blood Pressure","84","mmHg","84",84,"mmHg","2014-01-15",4,"WEEK 2","Xanomeline Low Dose",NA
"01-701-1097",16,"DIABP","Diastolic Blood Pressure","71","mmHg","71",71,"mmHg","2014-01-29",5,"WEEK 4","Xanomeline Low Dose",NA
"01-701-1097",17,"DIABP","Diastolic Blood Pressure","70","mmHg","70",70,"mmHg","2014-01-29",5,"WEEK 4","Xanomeline Low Dose",NA
"01-701-1097",18,"DIABP","Diastolic Blood Pressure","68","mmHg","68",68,"mmHg","2014-01-29",5,"WEEK 4","Xanomeline Low Dose",NA
"01-701-1097",19,"DIABP","Diastolic Blood Pressure","68","mmHg","68",68,"mmHg","2014-02-04",6,"AMBUL ECG REMOVAL","Xanomeline Low Dose",NA
"01-701-1097",20,"DIABP","Diastolic Blood Pressure","70","mmHg","70",70,"mmHg","2014-02-04",6,"AMBUL ECG REMOVAL","Xanomeline Low Dose",NA
"01-701-1097",21,"DIABP","Diastolic Blood Pressure","70","mmHg","70",70,"mmHg","2014-02-04",6,"AMBUL ECG REMOVAL","Xanomeline Low Dose",NA
"01-701-1097",22,"DIABP","Diastolic Blood Pressure","68","mmHg","68",68,"mmHg","2014-02-11",7,"WEEK 6","Xanomeline Low Dose",NA
"01-701-1097",23,"DIABP","Diastolic Blood Pressure","70","mmHg","70",70,"mmHg","2014-02-11",7,"WEEK 6","Xanomeline Low Dose",NA
"01-701-1097",24,"DIABP","Diastolic Blood Pressure","78","mmHg","78",78,"mmHg","2014-02-11",7,"WEEK 6","Xanomeline Low Dose",NA
"01-701-1097",25,"DIABP","Diastolic Blood Pressure","75","mmHg","75",75,"mmHg","2014-02-26",8,"WEEK 8","Xanomeline Low Dose",NA
"01-701-1097",26,"DIABP","Diastolic Blood Pressure","73","mmHg","73",73,"mmHg","2014-02-26",8,"WEEK 8","Xanomeline Low Dose",NA
"01-701-1097",27,"DIABP","Diastolic Blood Pressure","66","mmHg","66",66,"mmHg","2014-02-26",8,"WEEK 8","Xanomeline Low Dose",NA
"01-701-1097",28,"DIABP","Diastolic Blood Pressure","74","mmHg","74",74,"mmHg","2014-03-26",9,"WEEK 12","Xanomeline Low Dose",NA
"01-701-1097",29,"DIABP","Diastolic Blood Pressure","70","mmHg","70",70,"mmHg","2014-03-26",9,"WEEK 12","Xanomeline Low Dose",NA
"01-701-1097",30,"DIABP","Diastolic Blood Pressure","72","mmHg","72",72,"mmHg","2014-03-26",9,"WEEK 12","Xanomeline Low Dose",NA
"01-701-1097",31,"DIABP","Diastolic Blood Pressure","70","mmHg","70",70,"mmHg","2014-04-23",10,"WEEK 16","Xanomeline Low Dose",NA
"01-701-1097",32,"DIABP","Diastolic Blood Pressure","76","mmHg","76",76,"mmHg","2014-04-23",10,"WEEK 16","Xanomeline Low Dose",NA
"01-701-1097",33,"DIABP","Diastolic Blood Pressure","74","mmHg","74",74,"mmHg","2014-04-23",10,"WEEK 16","Xanomeline Low Dose",NA
"01-701-1097",34,"DIABP","Diastolic Blood Pressure","67","mmHg","67",67,"mmHg","2014-05-21",11,"WEEK 20","Xanomeline Low Dose",NA
"01-701-1097",35,"DIABP","Diastolic Blood Pressure","58","mmHg","58",58,"mmHg","2014-05-21",11,"WEEK 20","Xanomeline Low Dose",NA
"01-701-1097",36,"DIABP","Diastolic Blood Pressure","61","mmHg","61",61,"mmHg","2014-05-21",11,"WEEK 20","Xanomeline Low Dose",NA
"01-701-1097",37,"DIABP","Diastolic Blood Pressure","83","mmHg","83",83,"mmHg","2014-06-18",12,"WEEK 24","Xanomeline Low Dose",NA
"01-701-1097",38,"DIABP","Diastolic Blood Pressure","84","mmHg","84",84,"mmHg","2014-06-18",12,"WEEK 24","Xanomeline Low Dose",NA
"01-701-1097",39,"DIABP","Diastolic Blood Pressure","84","mmHg","84",84,"mmHg","2014-06-18",12,"WEEK 24","Xanomeline Low Dose",NA
"01-701-1097",40,"DIABP","Diastolic Blood Pressure","72","mmHg","72",72,"mmHg","2014-07-09",13,"WEEK 26","Xanomeline Low Dose",NA
"01-701-1097",41,"DIABP","Diastolic Blood Pressure","78","mmHg","78",78,"mmHg","2014-07-09",13,"WEEK 26","Xanomeline Low Dose",NA
"01-701-1097",42,"DIABP","Diastolic Blood Pressure","77","mmHg","77",77,"mmHg","2014-07-09",13,"WEEK 26","Xanomeline Low Dose",NA
"01-701-1097",43,"HEIGHT","Height","066.5","IN","168.91",168.91,"cm","2013-12-23",1,"SCREENING 1","Xanomeline Low Dose",NA
"01-701-1097",44,"PULSE","Pulse Rate","59","BEATS/MIN","59",59,"BEATS/MIN","2013-12-23",1,"SCREENING 1","Xanomeline Low Dose",NA
"01-701-1097",45,"PULSE","Pulse Rate","66","BEATS/MIN","66",66,"BEATS/MIN","2013-12-23",1,"SCREENING 1","Xanomeline Low Dose",NA
"01-701-1097",46,"PULSE","Pulse Rate","65","BEATS/MIN","65",65,"BEATS/MIN","2013-12-23",1,"SCREENING 1","Xanomeline Low Dose",NA
"01-701-1097",47,"PULSE","Pulse Rate","60","BEATS/MIN","60",60,"BEATS/MIN","2013-12-30",2,"SCREENING 2","Xanomeline Low Dose",NA
"01-701-1097",48,"PULSE","Pulse Rate","70","BEATS/MIN","70",70,"BEATS/MIN","2013-12-30",2,"SCREENING 2","Xanomeline Low Dose",NA
"01-701-1097",49,"PULSE","Pulse Rate","66","BEATS/MIN","66",66,"BEATS/MIN","2013-12-30",2,"SCREENING 2","Xanomeline Low Dose",NA
"01-701-1097",50,"PULSE","Pulse Rate","60","BEATS/MIN","60",60,"BEATS/MIN","2014-01-01",3,"BASELINE","Xanomeline Low Dose",NA
"01-701-1097",51,"PULSE","Pulse Rate","68","BEATS/MIN","68",68,"BEATS/MIN","2014-01-01",3,"BASELINE","Xanomeline Low Dose",NA
"01-701-1097",52,"PULSE","Pulse Rate","64","BEATS/MIN","64",64,"BEATS/MIN","2014-01-01",3,"BASELINE","Xanomeline Low Dose",NA
"01-701-1097",53,"PULSE","Pulse Rate","55","BEATS/MIN","55",55,"BEATS/MIN","2014-01-14",3.5,"AMBUL ECG PLACEMENT","Xanomeline Low Dose",NA
"01-701-1097",54,"PULSE","Pulse Rate","59","BEATS/MIN","59",59,"BEATS/MIN","2014-01-14",3.5,"AMBUL ECG PLACEMENT","Xanomeline Low Dose",NA
"01-701-1097",55,"PULSE","Pulse Rate","60","BEATS/MIN","60",60,"BEATS/MIN","2014-01-14",3.5,"AMBUL ECG PLACEMENT","Xanomeline Low Dose",NA
"01-701-1097",56,"PULSE","Pulse Rate","66","BEATS/MIN","66",66,"BEATS/MIN","2014-01-15",4,"WEEK 2","Xanomeline Low Dose",NA
"01-701-1097",57,"PULSE","Pulse Rate","72","BEATS/MIN","72",72,"BEATS/MIN","2014-01-15",4,"WEEK 2","Xanomeline Low Dose",NA
"01-701-1097",58,"PULSE","Pulse Rate","68","BEATS/MIN","68",68,"BEATS/MIN","2014-01-15",4,"WEEK 2","Xanomeline Low Dose",NA
"01-701-1097",59,"PULSE","Pulse Rate","50","BEATS/MIN","50",50,"BEATS/MIN","2014-01-29",5,"WEEK 4","Xanomeline Low Dose",NA
"01-701-1097",60,"PULSE","Pulse Rate","54","BEATS/MIN","54",54,"BEATS/MIN","2014-01-29",5,"WEEK 4","Xanomeline Low Dose",NA
"01-701-1097",61,"PULSE","Pulse Rate","54","BEATS/MIN","54",54,"BEATS/MIN","2014-01-29",5,"WEEK 4","Xanomeline Low Dose",NA
"01-701-1097",62,"PULSE","Pulse Rate","62","BEATS/MIN","62",62,"BEATS/MIN","2014-02-04",6,"AMBUL ECG REMOVAL","Xanomeline Low Dose",NA
"01-701-1097",63,"PULSE","Pulse Rate","68","BEATS/MIN","68",68,"BEATS/MIN","2014-02-04",6,"AMBUL ECG REMOVAL","Xanomeline Low Dose",NA
"01-701-1097",64,"PULSE","Pulse Rate","66","BEATS/MIN","66",66,"BEATS/MIN","2014-02-04",6,"AMBUL ECG REMOVAL","Xanomeline Low Dose",NA
"01-701-1097",65,"PULSE","Pulse Rate","64","BEATS/MIN","64",64,"BEATS/MIN","2014-02-11",7,"WEEK 6","Xanomeline Low Dose",NA
"01-701-1097",66,"PULSE","Pulse Rate","76","BEATS/MIN","76",76,"BEATS/MIN","2014-02-11",7,"WEEK 6","Xanomeline Low Dose",NA
"01-701-1097",67,"PULSE","Pulse Rate","74","BEATS/MIN","74",74,"BEATS/MIN","2014-02-11",7,"WEEK 6","Xanomeline Low Dose",NA
"01-701-1097",68,"PULSE","Pulse Rate","54","BEATS/MIN","54",54,"BEATS/MIN","2014-02-26",8,"WEEK 8","Xanomeline Low Dose",NA
"01-701-1097",69,"PULSE","Pulse Rate","62","BEATS/MIN","62",62,"BEATS/MIN","2014-02-26",8,"WEEK 8","Xanomeline Low Dose",NA
"01-701-1097",70,"PULSE","Pulse Rate","61","BEATS/MIN","61",61,"BEATS/MIN","2014-02-26",8,"WEEK 8","Xanomeline Low Dose",NA
"01-701-1097",71,"PULSE","Pulse Rate","58","BEATS/MIN","58",58,"BEATS/MIN","2014-03-26",9,"WEEK 12","Xanomeline Low Dose",NA
"01-701-1097",72,"PULSE","Pulse Rate","72","BEATS/MIN","72",72,"BEATS/MIN","2014-03-26",9,"WEEK 12","Xanomeline Low Dose",NA
"01-701-1097",73,"PULSE","Pulse Rate","70","BEATS/MIN","70",70,"BEATS/MIN","2014-03-26",9,"WEEK 12","Xanomeline Low Dose",NA
"01-701-1097",74,"PULSE","Pulse Rate","67","BEATS/MIN","67",67,"BEATS/MIN","2014-04-23",10,"WEEK 16","Xanomeline Low Dose",NA
"01-701-1097",75,"PULSE","Pulse Rate","74","BEATS/MIN","74",74,"BEATS/MIN","2014-04-23",10,"WEEK 16","Xanomeline Low Dose",NA
"01-701-1097",76,"PULSE","Pulse Rate","72","BEATS/MIN","72",72,"BEATS/MIN","2014-04-23",10,"WEEK 16","Xanomeline Low Dose",NA
"01-701-1097",77,"PULSE","Pulse Rate","61","BEATS/MIN","61",61,"BEATS/MIN","2014-05-21",11,"WEEK 20","Xanomeline Low Dose",NA
"01-701-1097",78,"PULSE","Pulse Rate","70","BEATS/MIN","70",70,"BEATS/MIN","2014-05-21",11,"WEEK 20","Xanomeline Low Dose",NA
"01-701-1097",79,"PULSE","Pulse Rate","67","BEATS/MIN","67",67,"BEATS/MIN","2014-05-21",11,"WEEK 20","Xanomeline Low Dose",NA
"01-701-1097",80,"PULSE","Pulse Rate","65","BEATS/MIN","65",65,"BEATS/MIN","2014-06-18",12,"WEEK 24","Xanomeline Low Dose",NA
"01-701-1097",81,"PULSE","Pulse Rate","74","BEATS/MIN","74",74,"BEATS/MIN","2014-06-18",12,"WEEK 24","Xanomeline Low Dose",NA
"01-701-1097",82,"PULSE","Pulse Rate","72","BEATS/MIN","72",72,"BEATS/MIN","2014-06-18",12,"WEEK 24","Xanomeline Low Dose",NA
"01-701-1097",83,"PULSE","Pulse Rate","58","BEATS/MIN","58",58,"BEATS/MIN","2014-07-09",13,"WEEK 26","Xanomeline Low Dose",NA
"01-701-1097",84,"PULSE","Pulse Rate","76","BEATS/MIN","76",76,"BEATS/MIN","2014-07-09",13,"WEEK 26","Xanomeline Low Dose",NA
"01-701-1097",85,"PULSE","Pulse Rate","66","BEATS/MIN","66",66,"BEATS/MIN","2014-07-09",13,"WEEK 26","Xanomeline Low Dose",NA
"01-701-1097",86,"SYSBP","Systolic Blood Pressure","138","mmHg","138",138,"mmHg","2013-12-23",1,"SCREENING 1","Xanomeline Low Dose",NA
"01-701-1097",87,"SYSBP","Systolic Blood Pressure","137","mmHg","137",137,"mmHg","2013-12-23",1,"SCREENING 1","Xanomeline Low Dose",NA
"01-701-1097",88,"SYSBP","Systolic Blood Pressure","139","mmHg","139",139,"mmHg","2013-12-23",1,"SCREENING 1","Xanomeline Low Dose",NA
"01-701-1097",89,"SYSBP","Systolic Blood Pressure","131","mmHg","131",131,"mmHg","2013-12-30",2,"SCREENING 2","Xanomeline Low Dose",NA
"01-701-1097",90,"SYSBP","Systolic Blood Pressure","138","mmHg","138",138,"mmHg","2013-12-30",2,"SCREENING 2","Xanomeline Low Dose",NA
"01-701-1097",91,"SYSBP","Systolic Blood Pressure","138","mmHg","138",138,"mmHg","2013-12-30",2,"SCREENING 2","Xanomeline Low Dose",NA
"01-701-1097",92,"SYSBP","Systolic Blood Pressure","128","mmHg","128",128,"mmHg","2014-01-01",3,"BASELINE","Xanomeline Low Dose",NA
"01-701-1097",93,"SYSBP","Systolic Blood Pressure","130","mmHg","130",130,"mmHg","2014-01-01",3,"BASELINE","Xanomeline Low Dose",NA
"01-701-1097",94,"SYSBP","Systolic Blood Pressure","132","mmHg","132",132,"mmHg","2014-01-01",3,"BASELINE","Xanomeline Low Dose",NA
"01-701-1097",95,"SYSBP","Systolic Blood Pressure","121","mmHg","121",121,"mmHg","2014-01-14",3.5,"AMBUL ECG PLACEMENT","Xanomeline Low Dose",NA
"01-701-1097",96,"SYSBP","Systolic Blood Pressure","144","mmHg","144",144,"mmHg","2014-01-14",3.5,"AMBUL ECG PLACEMENT","Xanomeline Low Dose",NA
"01-701-1097",97,"SYSBP","Systolic Blood Pressure","130","mmHg","130",130,"mmHg","2014-01-14",3.5,"AMBUL ECG PLACEMENT","Xanomeline Low Dose",NA
"01-701-1097",98,"SYSBP","Systolic Blood Pressure","124","mmHg","124",124,"mmHg","2014-01-15",4,"WEEK 2","Xanomeline Low Dose",NA
"01-701-1097",99,"SYSBP","Systolic Blood Pressure","130","mmHg","130",130,"mmHg","2014-01-15",4,"WEEK 2","Xanomeline Low Dose",NA
"01-701-1097",100,"SYSBP","Systolic Blood Pressure","132","mmHg","132",132,"mmHg","2014-01-15",4,"WEEK 2","Xanomeline Low Dose",NA
"01-701-1097",101,"SYSBP","Systolic Blood Pressure","137","mmHg","137",137,"mmHg","2014-01-29",5,"WEEK 4","Xanomeline Low Dose",NA
"01-701-1097",102,"SYSBP","Systolic Blood Pressure","134","mmHg","134",134,"mmHg","2014-01-29",5,"WEEK 4","Xanomeline Low Dose",NA
"01-701-1097",103,"SYSBP","Systolic Blood Pressure","137","mmHg","137",137,"mmHg","2014-01-29",5,"WEEK 4","Xanomeline Low Dose",NA
"01-701-1097",104,"SYSBP","Systolic Blood Pressure","132","mmHg","132",132,"mmHg","2014-02-04",6,"AMBUL ECG REMOVAL","Xanomeline Low Dose",NA
"01-701-1097",105,"SYSBP","Systolic Blood Pressure","132","mmHg","132",132,"mmHg","2014-02-04",6,"AMBUL ECG REMOVAL","Xanomeline Low Dose",NA
"01-701-1097",106,"SYSBP","Systolic Blood Pressure","138","mmHg","138",138,"mmHg","2014-02-04",6,"AMBUL ECG REMOVAL","Xanomeline Low Dose",NA
"01-701-1097",107,"SYSBP","Systolic Blood Pressure","122","mmHg","122",122,"mmHg","2014-02-11",7,"WEEK 6","Xanomeline Low Dose",NA
"01-701-1097",108,"SYSBP","Systolic Blood Pressure","124","mmHg","124",124,"mmHg","2014-02-11",7,"WEEK 6","Xanomeline Low Dose",NA
"01-701-1097",109,"SYSBP","Systolic Blood Pressure","124","mmHg","124",124,"mmHg","2014-02-11",7,"WEEK 6","Xanomeline Low Dose",NA
"01-701-1097",110,"SYSBP","Systolic Blood Pressure","136","mmHg","136",136,"mmHg","2014-02-26",8,"WEEK 8","Xanomeline Low Dose",NA
"01-701-1097",111,"SYSBP","Systolic Blood Pressure","130","mmHg","130",130,"mmHg","2014-02-26",8,"WEEK 8","Xanomeline Low Dose",NA
"01-701-1097",112,"SYSBP","Systolic Blood Pressure","131","mmHg","131",131,"mmHg","2014-02-26",8,"WEEK 8","Xanomeline Low Dose",NA
"01-701-1097",113,"SYSBP","Systolic Blood Pressure","121","mmHg","121",121,"mmHg","2014-03-26",9,"WEEK 12","Xanomeline Low Dose",NA
"01-701-1097",114,"SYSBP","Systolic Blood Pressure","132","mmHg","132",132,"mmHg","2014-03-26",9,"WEEK 12","Xanomeline Low Dose",NA
"01-701-1097",115,"SYSBP","Systolic Blood Pressure","139","mmHg","139",139,"mmHg","2014-03-26",9,"WEEK 12","Xanomeline Low Dose",NA
"01-701-1097",116,"SYSBP","Systolic Blood Pressure","132","mmHg","132",132,"mmHg","2014-04-23",10,"WEEK 16","Xanomeline Low Dose",NA
"01-701-1097",117,"SYSBP","Systolic Blood Pressure","138","mmHg","138",138,"mmHg","2014-04-23",10,"WEEK 16","Xanomeline Low Dose",NA
"01-701-1097",118,"SYSBP","Systolic Blood Pressure","139","mmHg","139",139,"mmHg","2014-04-23",10,"WEEK 16","Xanomeline Low Dose",NA
"01-701-1097",119,"SYSBP","Systolic Blood Pressure","121","mmHg","121",121,"mmHg","2014-05-21",11,"WEEK 20","Xanomeline Low Dose",NA
"01-701-1097",120,"SYSBP","Systolic Blood Pressure","112","mmHg","112",112,"mmHg","2014-05-21",11,"WEEK 20","Xanomeline Low Dose",NA
"01-701-1097",121,"SYSBP","Systolic Blood Pressure","115","mmHg","115",115,"mmHg","2014-05-21",11,"WEEK 20","Xanomeline Low Dose",NA
"01-701-1097",122,"SYSBP","Systolic Blood Pressure","137","mmHg","137",137,"mmHg","2014-06-18",12,"WEEK 24","Xanomeline Low Dose",NA
"01-701-1097",123,"SYSBP","Systolic Blood Pressure","131","mmHg","131",131,"mmHg","2014-06-18",12,"WEEK 24","Xanomeline Low Dose",NA
"01-701-1097",124,"SYSBP","Systolic Blood Pressure","130","mmHg","130",130,"mmHg","2014-06-18",12,"WEEK 24","Xanomeline Low Dose",NA
"01-701-1097",125,"SYSBP","Systolic Blood Pressure","123","mmHg","123",123,"mmHg","2014-07-09",13,"WEEK 26","Xanomeline Low Dose",NA
"01-701-1097",126,"SYSBP","Systolic Blood Pressure","132","mmHg","132",132,"mmHg","2014-07-09",13,"WEEK 26","Xanomeline Low Dose",NA
"01-701-1097",127,"SYSBP","Systolic Blood Pressure","131","mmHg","131",131,"mmHg","2014-07-09",13,"WEEK 26","Xanomeline Low Dose",NA
"01-701-1097",128,"TEMP","Temperature","096.4","F","35.78",35.78,"C","2013-12-23",1,"SCREENING 1","Xanomeline Low Dose",NA
"01-701-1097",129,"TEMP","Temperature","098.1","F","36.72",36.72,"C","2013-12-30",2,"SCREENING 2","Xanomeline Low Dose",NA
"01-701-1097",130,"TEMP","Temperature","097.6","F","36.44",36.44,"C","2014-01-01",3,"BASELINE","Xanomeline Low Dose",NA
"01-701-1097",131,"TEMP","Temperature","097.9","F","36.61",36.61,"C","2014-01-14",3.5,"AMBUL ECG PLACEMENT","Xanomeline Low Dose",NA
"01-701-1097",132,"TEMP","Temperature","097.7","F","36.5",36.5,"C","2014-01-15",4,"WEEK 2","Xanomeline Low Dose",NA
"01-701-1097",133,"TEMP","Temperature","93.7","F","34.28",34.28,"C","2014-01-29",5,"WEEK 4","Xanomeline Low Dose",NA
"01-701-1097",134,"TEMP","Temperature","098.0","F","36.67",36.67,"C","2014-02-04",6,"AMBUL ECG REMOVAL","Xanomeline Low Dose",NA
"01-701-1097",135,"TEMP","Temperature","097.6","F","36.44",36.44,"C","2014-02-11",7,"WEEK 6","Xanomeline Low Dose",NA
"01-701-1097",136,"TEMP","Temperature","98.3","F","36.83",36.83,"C","2014-02-26",8,"WEEK 8","Xanomeline Low Dose",NA
"01-701-1097",137,"TEMP","Temperature","97.5","F","36.39",36.39,"C","2014-03-26",9,"WEEK 12","Xanomeline Low Dose",NA
"01-701-1097",138,"TEMP","Temperature","98.1","F","36.72",36.72,"C","2014-04-23",10,"WEEK 16","Xanomeline Low Dose",NA
"01-701-1097",139,"TEMP","Temperature","97.6","F","36.44",36.44,"C","2014-05-21",11,"WEEK 20","Xanomeline Low Dose",NA
"01-701-1097",140,"TEMP","Temperature","98.6","F","37",37,"C","2014-06-18",12,"WEEK 24","Xanomeline Low Dose",NA
"01-701-1097",141,"TEMP","Temperature","97.8","F","36.56",36.56,"C","2014-07-09",13,"WEEK 26","Xanomeline Low Dose",NA
"01-701-1097",142,"WEIGHT","Weight","172.0","LB","78.02",78.02,"kg","2013-12-23",1,"SCREENING 1","Xanomeline Low Dose",NA
"01-701-1097",143,"WEIGHT","Weight","172.0","LB","78.02",78.02,"kg","2014-01-01",3,"BASELINE","Xanomeline Low Dose",NA
"01-701-1097",144,"WEIGHT","Weight","175.0","LB","79.38",79.38,"kg","2014-01-15",4,"WEEK 2","Xanomeline Low Dose",NA
"01-701-1097",145,"WEIGHT","Weight","175.0","LB","79.38",79.38,"kg","2014-01-29",5,"WEEK 4","Xanomeline Low Dose",NA
"01-701-1097",146,"WEIGHT","Weight","175.0","LB","79.38",79.38,"kg","2014-02-11",7,"WEEK 6","Xanomeline Low Dose",NA
"01-701-1097",147,"WEIGHT","Weight","173.0","LB","78.47",78.47,"kg","2014-02-26",8,"WEEK 8","Xanomeline Low Dose",NA
"01-701-1097",148,"WEIGHT","Weight","176.0","LB","79.83",79.83,"kg","2014-03-26",9,"WEEK 12","Xanomeline Low Dose",NA
"01-701-1097",149,"WEIGHT","Weight","175.0","LB","79.38",79.38,"kg","2014-04-23",10,"WEEK 16","Xanomeline Low Dose",NA
"01-701-1097",150,"WEIGHT","Weight","176.0","LB","79.83",79.83,"kg","2014-05-21",11,"WEEK 20","Xanomeline Low Dose",NA
"01-701-1097",151,"WEIGHT","Weight","177.0","LB","80.29",80.29,"kg","2014-06-18",12,"WEEK 24","Xanomeline Low Dose",NA
"01-701-1097",152,"WEIGHT","Weight","173.0","LB","78.47",78.47,"kg","2014-07-09",13,"WEEK 26","Xanomeline Low Dose",NA
"01-701-1111",1,"DIABP","Diastolic Blood Pressure","74","mmHg","74",74,"mmHg","2012-08-25",1,"SCREENING 1","Xanomeline Low Dose",NA
"01-701-1111",2,"DIABP","Diastolic Blood Pressure","75","mmHg","75",75,"mmHg","2012-08-25",1,"SCREENING 1","Xanomeline Low Dose",NA
"01-701-1111",3,"DIABP","Diastolic Blood Pressure","65","mmHg","65",65,"mmHg","2012-08-25",1,"SCREENING 1","Xanomeline Low Dose",NA
"01-701-1111",4,"DIABP","Diastolic Blood Pressure","63","mmHg","63",63,"mmHg","2012-09-05",2,"SCREENING 2","Xanomeline Low Dose",NA
"01-701-1111",5,"DIABP","Diastolic Blood Pressure","74","mmHg","74",74,"mmHg","2012-09-05",2,"SCREENING 2","Xanomeline Low Dose",NA
"01-701-1111",6,"DIABP","Diastolic Blood Pressure","74","mmHg","74",74,"mmHg","2012-09-05",2,"SCREENING 2","Xanomeline Low Dose",NA
"01-701-1111",7,"DIABP","Diastolic Blood Pressure","66","mmHg","66",66,"mmHg","2012-09-07",3,"BASELINE","Xanomeline Low Dose",NA
"01-701-1111",8,"DIABP","Diastolic Blood Pressure","78","mmHg","78",78,"mmHg","2012-09-07",3,"BASELINE","Xanomeline Low Dose",NA
"01-701-1111",9,"DIABP","Diastolic Blood Pressure","71","mmHg","71",71,"mmHg","2012-09-07",3,"BASELINE","Xanomeline Low Dose",NA
"01-701-1111",10,"DIABP","Diastolic Blood Pressure","60","mmHg","60",60,"mmHg","2012-09-17",4,"WEEK 2","Xanomeline Low Dose",NA
"01-701-1111",11,"DIABP","Diastolic Blood Pressure","66","mmHg","66",66,"mmHg","2012-09-17",4,"WEEK 2","Xanomeline Low Dose",NA
"01-701-1111",12,"DIABP","Diastolic Blood Pressure","60","mmHg","60",60,"mmHg","2012-09-17",4,"WEEK 2","Xanomeline Low Dose",NA
"01-701-1111",13,"DIABP","Diastolic Blood Pressure","64","mmHg","64",64,"mmHg","2013-02-22",201,"RETRIEVAL","Xanomeline Low Dose",NA
"01-701-1111",14,"DIABP","Diastolic Blood Pressure","72","mmHg","72",72,"mmHg","2013-02-22",201,"RETRIEVAL","Xanomeline Low Dose",NA
"01-701-1111",15,"DIABP","Diastolic Blood Pressure","64","mmHg","64",64,"mmHg","2013-02-22",201,"RETRIEVAL","Xanomeline Low Dose",NA
"01-701-1111",16,"HEIGHT","Height","062.3","IN","158.24",158.24,"cm","2012-08-25",1,"SCREENING 1","Xanomeline Low Dose",NA
"01-701-1111",17,"PULSE","Pulse Rate","80","BEATS/MIN","80",80,"BEATS/MIN","2012-08-25",1,"SCREENING 1","Xanomeline Low Dose",NA
"01-701-1111",18,"PULSE","Pulse Rate","85","BEATS/MIN","85",85,"BEATS/MIN","2012-08-25",1,"SCREENING 1","Xanomeline Low Dose",NA
"01-701-1111",19,"PULSE","Pulse Rate","84","BEATS/MIN","84",84,"BEATS/MIN","2012-08-25",1,"SCREENING 1","Xanomeline Low Dose",NA
"01-701-1111",20,"PULSE","Pulse Rate","84","BEATS/MIN","84",84,"BEATS/MIN","2012-09-05",2,"SCREENING 2","Xanomeline Low Dose",NA
"01-701-1111",21,"PULSE","Pulse Rate","94","BEATS/MIN","94",94,"BEATS/MIN","2012-09-05",2,"SCREENING 2","Xanomeline Low Dose",NA
"01-701-1111",22,"PULSE","Pulse Rate","89","BEATS/MIN","89",89,"BEATS/MIN","2012-09-05",2,"SCREENING 2","Xanomeline Low Dose",NA
"01-701-1111",23,"PULSE","Pulse Rate","78","BEATS/MIN","78",78,"BEATS/MIN","2012-09-07",3,"BASELINE","Xanomeline Low Dose",NA
"01-701-1111",24,"PULSE","Pulse Rate","85","BEATS/MIN","85",85,"BEATS/MIN","2012-09-07",3,"BASELINE","Xanomeline Low Dose",NA
"01-701-1111",25,"PULSE","Pulse Rate","85","BEATS/MIN","85",85,"BEATS/MIN","2012-09-07",3,"BASELINE","Xanomeline Low Dose",NA
"01-701-1111",26,"PULSE","Pulse Rate","85","BEATS/MIN","85",85,"BEATS/MIN","2012-09-17",4,"WEEK 2","Xanomeline Low Dose",NA
"01-701-1111",27,"PULSE","Pulse Rate","89","BEATS/MIN","89",89,"BEATS/MIN","2012-09-17",4,"WEEK 2","Xanomeline Low Dose",NA
"01-701-1111",28,"PULSE","Pulse Rate","84","BEATS/MIN","84",84,"BEATS/MIN","2012-09-17",4,"WEEK 2","Xanomeline Low Dose",NA
"01-701-1111",29,"PULSE","Pulse Rate","66","BEATS/MIN","66",66,"BEATS/MIN","2013-02-22",201,"RETRIEVAL","Xanomeline Low Dose",NA
"01-701-1111",30,"PULSE","Pulse Rate","79","BEATS/MIN","79",79,"BEATS/MIN","2013-02-22",201,"RETRIEVAL","Xanomeline Low Dose",NA
"01-701-1111",31,"PULSE","Pulse Rate","74","BEATS/MIN","74",74,"BEATS/MIN","2013-02-22",201,"RETRIEVAL","Xanomeline Low Dose",NA
"01-701-1111",32,"SYSBP","Systolic Blood Pressure","137","mmHg","137",137,"mmHg","2012-08-25",1,"SCREENING 1","Xanomeline Low Dose",NA
"01-701-1111",33,"SYSBP","Systolic Blood Pressure","129","mmHg","129",129,"mmHg","2012-08-25",1,"SCREENING 1","Xanomeline Low Dose",NA
"01-701-1111",34,"SYSBP","Systolic Blood Pressure","122","mmHg","122",122,"mmHg","2012-08-25",1,"SCREENING 1","Xanomeline Low Dose",NA
"01-701-1111",35,"SYSBP","Systolic Blood Pressure","137","mmHg","137",137,"mmHg","2012-09-05",2,"SCREENING 2","Xanomeline Low Dose",NA
"01-701-1111",36,"SYSBP","Systolic Blood Pressure","121","mmHg","121",121,"mmHg","2012-09-05",2,"SCREENING 2","Xanomeline Low Dose",NA
"01-701-1111",37,"SYSBP","Systolic Blood Pressure","129","mmHg","129",129,"mmHg","2012-09-05",2,"SCREENING 2","Xanomeline Low Dose",NA
"01-701-1111",38,"SYSBP","Systolic Blood Pressure","129","mmHg","129",129,"mmHg","2012-09-07",3,"BASELINE","Xanomeline Low Dose",NA
"01-701-1111",39,"SYSBP","Systolic Blood Pressure","136","mmHg","136",136,"mmHg","2012-09-07",3,"BASELINE","Xanomeline Low Dose",NA
"01-701-1111",40,"SYSBP","Systolic Blood Pressure","135","mmHg","135",135,"mmHg","2012-09-07",3,"BASELINE","Xanomeline Low Dose",NA
"01-701-1111",41,"SYSBP","Systolic Blood Pressure","125","mmHg","125",125,"mmHg","2012-09-17",4,"WEEK 2","Xanomeline Low Dose",NA
"01-701-1111",42,"SYSBP","Systolic Blood Pressure","112","mmHg","112",112,"mmHg","2012-09-17",4,"WEEK 2","Xanomeline Low Dose",NA
"01-701-1111",43,"SYSBP","Systolic Blood Pressure","110","mmHg","110",110,"mmHg","2012-09-17",4,"WEEK 2","Xanomeline Low Dose",NA
"01-701-1111",44,"SYSBP","Systolic Blood Pressure","138","mmHg","138",138,"mmHg","2013-02-22",201,"RETRIEVAL","Xanomeline Low Dose",NA
"01-701-1111",45,"SYSBP","Systolic Blood Pressure","130","mmHg","130",130,"mmHg","2013-02-22",201,"RETRIEVAL","Xanomeline Low Dose",NA
"01-701-1111",46,"SYSBP","Systolic Blood Pressure","130","mmHg","130",130,"mmHg","2013-02-22",201,"RETRIEVAL","Xanomeline Low Dose",NA
"01-701-1111",47,"TEMP","Temperature","98.6","F","37",37,"C","2012-08-25",1,"SCREENING 1","Xanomeline Low Dose",NA
"01-701-1111",48,"TEMP","Temperature","97.9","F","36.61",36.61,"C","2012-09-05",2,"SCREENING 2","Xanomeline Low Dose",NA
"01-701-1111",49,"TEMP","Temperature","98.1","F","36.72",36.72,"C","2012-09-07",3,"BASELINE","Xanomeline Low Dose",NA
"01-701-1111",50,"TEMP","Temperature","098.8","F","37.11",37.11,"C","2012-09-17",4,"WEEK 2","Xanomeline Low Dose",NA
"01-701-1111",51,"TEMP","Temperature","97.7","F","36.5",36.5,"C","2013-02-22",201,"RETRIEVAL","Xanomeline Low Dose",NA
"01-701-1111",52,"WEIGHT","Weight","133.0","LB","60.33",60.33,"kg","2012-08-25",1,"SCREENING 1","Xanomeline Low Dose",NA
"01-701-1111",53,"WEIGHT","Weight","132.0","LB","59.88",59.88,"kg","2012-09-07",3,"BASELINE","Xanomeline Low Dose",NA
"01-701-1111",54,"WEIGHT","Weight","134.0","LB","60.78",60.78,"kg","2012-09-17",4,"WEEK 2","Xanomeline Low Dose",NA
"01-701-1115",1,"DIABP","Diastolic Blood Pressure","71","mmHg","71",71,"mmHg","2012-11-23",1,"SCREENING 1","Xanomeline Low Dose",NA
"01-701-1115",2,"DIABP","Diastolic Blood Pressure","68","mmHg","68",68,"mmHg","2012-11-23",1,"SCREENING 1","Xanomeline Low Dose",NA
"01-701-1115",3,"DIABP","Diastolic Blood Pressure","69","mmHg","69",69,"mmHg","2012-11-23",1,"SCREENING 1","Xanomeline Low Dose",NA
"01-701-1115",4,"DIABP","Diastolic Blood Pressure","71","mmHg","71",71,"mmHg","2012-11-28",2,"SCREENING 2","Xanomeline Low Dose",NA
"01-701-1115",5,"DIABP","Diastolic Blood Pressure","65","mmHg","65",65,"mmHg","2012-11-28",2,"SCREENING 2","Xanomeline Low Dose",NA
"01-701-1115",6,"DIABP","Diastolic Blood Pressure","68","mmHg","68",68,"mmHg","2012-11-28",2,"SCREENING 2","Xanomeline Low Dose",NA
"01-701-1115",7,"DIABP","Diastolic Blood Pressure","83","mmHg","83",83,"mmHg","2012-11-30",3,"BASELINE","Xanomeline Low Dose",NA
"01-701-1115",8,"DIABP","Diastolic Blood Pressure","67","mmHg","67",67,"mmHg","2012-11-30",3,"BASELINE","Xanomeline Low Dose",NA
"01-701-1115",9,"DIABP","Diastolic Blood Pressure","69","mmHg","69",69,"mmHg","2012-11-30",3,"BASELINE","Xanomeline Low Dose",NA
"01-701-1115",10,"DIABP","Diastolic Blood Pressure","78","mmHg","78",78,"mmHg","2012-12-12",3.5,"AMBUL ECG PLACEMENT","Xanomeline Low Dose",NA
"01-701-1115",11,"DIABP","Diastolic Blood Pressure","70","mmHg","70",70,"mmHg","2012-12-12",3.5,"AMBUL ECG PLACEMENT","Xanomeline Low Dose",NA
"01-701-1115",12,"DIABP","Diastolic Blood Pressure","72","mmHg","72",72,"mmHg","2012-12-12",3.5,"AMBUL ECG PLACEMENT","Xanomeline Low Dose",NA
"01-701-1115",13,"DIABP","Diastolic Blood Pressure","79","mmHg","79",79,"mmHg","2012-12-13",4,"WEEK 2","Xanomeline Low Dose",NA
"01-701-1115",14,"DIABP","Diastolic Blood Pressure","68","mmHg","68",68,"mmHg","2012-12-13",4,"WEEK 2","Xanomeline Low Dose",NA
"01-701-1115",15,"DIABP","Diastolic Blood Pressure","69","mmHg","69",69,"mmHg","2012-12-13",4,"WEEK 2","Xanomeline Low Dose",NA
"01-701-1115",16,"DIABP","Diastolic Blood Pressure","68","mmHg","68",68,"mmHg","2012-12-26",5,"WEEK 4","Xanomeline Low Dose",NA
"01-701-1115",17,"DIABP","Diastolic Blood Pressure","53","mmHg","53",53,"mmHg","2012-12-26",5,"WEEK 4","Xanomeline Low Dose",NA
"01-701-1115",18,"DIABP","Diastolic Blood Pressure","56","mmHg","56",56,"mmHg","2012-12-26",5,"WEEK 4","Xanomeline Low Dose",NA
"01-701-1115",19,"DIABP","Diastolic Blood Pressure","69","mmHg","69",69,"mmHg","2012-12-28",6,"AMBUL ECG REMOVAL","Xanomeline Low Dose",NA
"01-701-1115",20,"DIABP","Diastolic Blood Pressure","61","mmHg","61",61,"mmHg","2012-12-28",6,"AMBUL ECG REMOVAL","Xanomeline Low Dose",NA
"01-701-1115",21,"DIABP","Diastolic Blood Pressure","50","mmHg","50",50,"mmHg","2012-12-28",6,"AMBUL ECG REMOVAL","Xanomeline Low Dose",NA
"01-701-1115",22,"DIABP","Diastolic Blood Pressure","77","mmHg","77",77,"mmHg","2013-01-10",7,"WEEK 6","Xanomeline Low Dose",NA
"01-701-1115",23,"DIABP","Diastolic Blood Pressure","71","mmHg","71",71,"mmHg","2013-01-10",7,"WEEK 6","Xanomeline Low Dose",NA
"01-701-1115",24,"DIABP","Diastolic Blood Pressure","69","mmHg","69",69,"mmHg","2013-01-10",7,"WEEK 6","Xanomeline Low Dose",NA
"01-701-1115",25,"DIABP","Diastolic Blood Pressure","76","mmHg","76",76,"mmHg","2013-01-23",8,"WEEK 8","Xanomeline Low Dose",NA
"01-701-1115",26,"DIABP","Diastolic Blood Pressure","52","mmHg","52",52,"mmHg","2013-01-23",8,"WEEK 8","Xanomeline Low Dose",NA
"01-701-1115",27,"DIABP","Diastolic Blood Pressure","60","mmHg","60",60,"mmHg","2013-01-23",8,"WEEK 8","Xanomeline Low Dose",NA
"01-701-1115",28,"DIABP","Diastolic Blood Pressure","68","mmHg","68",68,"mmHg","2013-05-20",201,"RETRIEVAL","Xanomeline Low Dose",NA
"01-701-1115",29,"DIABP","Diastolic Blood Pressure","72","mmHg","72",72,"mmHg","2013-05-20",201,"RETRIEVAL","Xanomeline Low Dose",NA
"01-701-1115",30,"DIABP","Diastolic Blood Pressure","68","mmHg","68",68,"mmHg","2013-05-20",201,"RETRIEVAL","Xanomeline Low Dose",NA
"01-701-1115",31,"HEIGHT","Height","71.5","IN","181.61",181.61,"cm","2012-11-23",1,"SCREENING 1","Xanomeline Low Dose",NA
"01-701-1115",32,"PULSE","Pulse Rate","51","BEATS/MIN","51",51,"BEATS/MIN","2012-11-23",1,"SCREENING 1","Xanomeline Low Dose",NA
"01-701-1115",33,"PULSE","Pulse Rate","63","BEATS/MIN","63",63,"BEATS/MIN","2012-11-23",1,"SCREENING 1","Xanomeline Low Dose",NA
"01-701-1115",34,"PULSE","Pulse Rate","61","BEATS/MIN","61",61,"BEATS/MIN","2012-11-23",1,"SCREENING 1","Xanomeline Low Dose",NA
"01-701-1115",35,"PULSE","Pulse Rate","50","BEATS/MIN","50",50,"BEATS/MIN","2012-11-28",2,"SCREENING 2","Xanomeline Low Dose",NA
"01-701-1115",36,"PULSE","Pulse Rate","58","BEATS/MIN","58",58,"BEATS/MIN","2012-11-28",2,"SCREENING 2","Xanomeline Low Dose",NA
"01-701-1115",37,"PULSE","Pulse Rate","59","BEATS/MIN","59",59,"BEATS/MIN","2012-11-28",2,"SCREENING 2","Xanomeline Low Dose",NA
"01-701-1115",38,"PULSE","Pulse Rate","50","BEATS/MIN","50",50,"BEATS/MIN","2012-11-30",3,"BASELINE","Xanomeline Low Dose",NA
"01-701-1115",39,"PULSE","Pulse Rate","62","BEATS/MIN","62",62,"BEATS/MIN","2012-11-30",3,"BASELINE","Xanomeline Low Dose",NA
"01-701-1115",40,"PULSE","Pulse Rate","60","BEATS/MIN","60",60,"BEATS/MIN","2012-11-30",3,"BASELINE","Xanomeline Low Dose",NA
"01-701-1115",41,"PULSE","Pulse Rate","52","BEATS/MIN","52",52,"BEATS/MIN","2012-12-12",3.5,"AMBUL ECG PLACEMENT","Xanomeline Low Dose",NA
"01-701-1115",42,"PULSE","Pulse Rate","64","BEATS/MIN","64",64,"BEATS/MIN","2012-12-12",3.5,"AMBUL ECG PLACEMENT","Xanomeline Low Dose",NA
"01-701-1115",43,"PULSE","Pulse Rate","65","BEATS/MIN","65",65,"BEATS/MIN","2012-12-12",3.5,"AMBUL ECG PLACEMENT","Xanomeline Low Dose",NA
"01-701-1115",44,"PULSE","Pulse Rate","53","BEATS/MIN","53",53,"BEATS/MIN","2012-12-13",4,"WEEK 2","Xanomeline Low Dose",NA
"01-701-1115",45,"PULSE","Pulse Rate","70","BEATS/MIN","70",70,"BEATS/MIN","2012-12-13",4,"WEEK 2","Xanomeline Low Dose",NA
"01-701-1115",46,"PULSE","Pulse Rate","65","BEATS/MIN","65",65,"BEATS/MIN","2012-12-13",4,"WEEK 2","Xanomeline Low Dose",NA
"01-701-1115",47,"PULSE","Pulse Rate","51","BEATS/MIN","51",51,"BEATS/MIN","2012-12-26",5,"WEEK 4","Xanomeline Low Dose",NA
"01-701-1115",48,"PULSE","Pulse Rate","57","BEATS/MIN","57",57,"BEATS/MIN","2012-12-26",5,"WEEK 4","Xanomeline Low Dose",NA
"01-701-1115",49,"PULSE","Pulse Rate","64","BEATS/MIN","64",64,"BEATS/MIN","2012-12-26",5,"WEEK 4","Xanomeline Low Dose",NA
"01-701-1115",50,"PULSE","Pulse Rate","50","BEATS/MIN","50",50,"BEATS/MIN","2012-12-28",6,"AMBUL ECG REMOVAL","Xanomeline Low Dose",NA
"01-701-1115",51,"PULSE","Pulse Rate","63","BEATS/MIN","63",63,"BEATS/MIN","2012-12-28",6,"AMBUL ECG REMOVAL","Xanomeline Low Dose",NA
"01-701-1115",52,"PULSE","Pulse Rate","60","BEATS/MIN","60",60,"BEATS/MIN","2012-12-28",6,"AMBUL ECG REMOVAL","Xanomeline Low Dose",NA
"01-701-1115",53,"PULSE","Pulse Rate","52","BEATS/MIN","52",52,"BEATS/MIN","2013-01-10",7,"WEEK 6","Xanomeline Low Dose",NA
"01-701-1115",54,"PULSE","Pulse Rate","62","BEATS/MIN","62",62,"BEATS/MIN","2013-01-10",7,"WEEK 6","Xanomeline Low Dose",NA
"01-701-1115",55,"PULSE","Pulse Rate","62","BEATS/MIN","62",62,"BEATS/MIN","2013-01-10",7,"WEEK 6","Xanomeline Low Dose",NA
"01-701-1115",56,"PULSE","Pulse Rate","50","BEATS/MIN","50",50,"BEATS/MIN","2013-01-23",8,"WEEK 8","Xanomeline Low Dose",NA
"01-701-1115",57,"PULSE","Pulse Rate","52","BEATS/MIN","52",52,"BEATS/MIN","2013-01-23",8,"WEEK 8","Xanomeline Low Dose",NA
"01-701-1115",58,"PULSE","Pulse Rate","54","BEATS/MIN","54",54,"BEATS/MIN","2013-01-23",8,"WEEK 8","Xanomeline Low Dose",NA
"01-701-1115",59,"PULSE","Pulse Rate","79","BEATS/MIN","79",79,"BEATS/MIN","2013-05-20",201,"RETRIEVAL","Xanomeline Low Dose",NA
"01-701-1115",60,"PULSE","Pulse Rate","98","BEATS/MIN","98",98,"BEATS/MIN","2013-05-20",201,"RETRIEVAL","Xanomeline Low Dose",NA
"01-701-1115",61,"PULSE","Pulse Rate","94","BEATS/MIN","94",94,"BEATS/MIN","2013-05-20",201,"RETRIEVAL","Xanomeline Low Dose",NA
"01-701-1115",62,"SYSBP","Systolic Blood Pressure","137","mmHg","137",137,"mmHg","2012-11-23",1,"SCREENING 1","Xanomeline Low Dose",NA
"01-701-1115",63,"SYSBP","Systolic Blood Pressure","130","mmHg","130",130,"mmHg","2012-11-23",1,"SCREENING 1","Xanomeline Low Dose",NA
"01-701-1115",64,"SYSBP","Systolic Blood Pressure","131","mmHg","131",131,"mmHg","2012-11-23",1,"SCREENING 1","Xanomeline Low Dose",NA
"01-701-1115",65,"SYSBP","Systolic Blood Pressure","137","mmHg","137",137,"mmHg","2012-11-28",2,"SCREENING 2","Xanomeline Low Dose",NA
"01-701-1115",66,"SYSBP","Systolic Blood Pressure","130","mmHg","130",130,"mmHg","2012-11-28",2,"SCREENING 2","Xanomeline Low Dose",NA
"01-701-1115",67,"SYSBP","Systolic Blood Pressure","115","mmHg","115",115,"mmHg","2012-11-28",2,"SCREENING 2","Xanomeline Low Dose",NA
"01-701-1115",68,"SYSBP","Systolic Blood Pressure","130","mmHg","130",130,"mmHg","2012-11-30",3,"BASELINE","Xanomeline Low Dose",NA
"01-701-1115",69,"SYSBP","Systolic Blood Pressure","106","mmHg","106",106,"mmHg","2012-11-30",3,"BASELINE","Xanomeline Low Dose",NA
"01-701-1115",70,"SYSBP","Systolic Blood Pressure","110","mmHg","110",110,"mmHg","2012-11-30",3,"BASELINE","Xanomeline Low Dose",NA
"01-701-1115",71,"SYSBP","Systolic Blood Pressure","144","mmHg","144",144,"mmHg","2012-12-12",3.5,"AMBUL ECG PLACEMENT","Xanomeline Low Dose",NA
"01-701-1115",72,"SYSBP","Systolic Blood Pressure","120","mmHg","120",120,"mmHg","2012-12-12",3.5,"AMBUL ECG PLACEMENT","Xanomeline Low Dose",NA
"01-701-1115",73,"SYSBP","Systolic Blood Pressure","116","mmHg","116",116,"mmHg","2012-12-12",3.5,"AMBUL ECG PLACEMENT","Xanomeline Low Dose",NA
"01-701-1115",74,"SYSBP","Systolic Blood Pressure","122","mmHg","122",122,"mmHg","2012-12-13",4,"WEEK 2","Xanomeline Low Dose",NA
"01-701-1115",75,"SYSBP","Systolic Blood Pressure","119","mmHg","119",119,"mmHg","2012-12-13",4,"WEEK 2","Xanomeline Low Dose",NA
"01-701-1115",76,"SYSBP","Systolic Blood Pressure","100","mmHg","100",100,"mmHg","2012-12-13",4,"WEEK 2","Xanomeline Low Dose",NA
"01-701-1115",77,"SYSBP","Systolic Blood Pressure","115","mmHg","115",115,"mmHg","2012-12-26",5,"WEEK 4","Xanomeline Low Dose",NA
"01-701-1115",78,"SYSBP","Systolic Blood Pressure","98","mmHg","98",98,"mmHg","2012-12-26",5,"WEEK 4","Xanomeline Low Dose",NA
"01-701-1115",79,"SYSBP","Systolic Blood Pressure","95","mmHg","95",95,"mmHg","2012-12-26",5,"WEEK 4","Xanomeline Low Dose",NA
"01-701-1115",80,"SYSBP","Systolic Blood Pressure","122","mmHg","122",122,"mmHg","2012-12-28",6,"AMBUL ECG REMOVAL","Xanomeline Low Dose",NA
"01-701-1115",81,"SYSBP","Systolic Blood Pressure","96","mmHg","96",96,"mmHg","2012-12-28",6,"AMBUL ECG REMOVAL","Xanomeline Low Dose",NA
"01-701-1115",82,"SYSBP","Systolic Blood Pressure","99","mmHg","99",99,"mmHg","2012-12-28",6,"AMBUL ECG REMOVAL","Xanomeline Low Dose",NA
"01-701-1115",83,"SYSBP","Systolic Blood Pressure","131","mmHg","131",131,"mmHg","2013-01-10",7,"WEEK 6","Xanomeline Low Dose",NA
"01-701-1115",84,"SYSBP","Systolic Blood Pressure","107","mmHg","107",107,"mmHg","2013-01-10",7,"WEEK 6","Xanomeline Low Dose",NA
"01-701-1115",85,"SYSBP","Systolic Blood Pressure","104","mmHg","104",104,"mmHg","2013-01-10",7,"WEEK 6","Xanomeline Low Dose",NA
"01-701-1115",86,"SYSBP","Systolic Blood Pressure","123","mmHg","123",123,"mmHg","2013-01-23",8,"WEEK 8","Xanomeline Low Dose",NA
"01-701-1115",87,"SYSBP","Systolic Blood Pressure","113","mmHg","113",113,"mmHg","2013-01-23",8,"WEEK 8","Xanomeline Low Dose",NA
"01-701-1115",88,"SYSBP","Systolic Blood Pressure","98","mmHg","98",98,"mmHg","2013-01-23",8,"WEEK 8","Xanomeline Low Dose",NA
"01-701-1115",89,"SYSBP","Systolic Blood Pressure","99","mmHg","99",99,"mmHg","2013-05-20",201,"RETRIEVAL","Xanomeline Low Dose",NA
"01-701-1115",90,"SYSBP","Systolic Blood Pressure","99","mmHg","99",99,"mmHg","2013-05-20",201,"RETRIEVAL","Xanomeline Low Dose",NA
"01-701-1115",91,"SYSBP","Systolic Blood Pressure","99","mmHg","99",99,"mmHg","2013-05-20",201,"RETRIEVAL","Xanomeline Low Dose",NA
"01-701-1115",92,"TEMP","Temperature","97.4","F","36.33",36.33,"C","2012-11-23",1,"SCREENING 1","Xanomeline Low Dose",NA
"01-701-1115",93,"TEMP","Temperature","97.2","F","36.22",36.22,"C","2012-11-28",2,"SCREENING 2","Xanomeline Low Dose",NA
"01-701-1115",94,"TEMP","Temperature","98.0","F","36.67",36.67,"C","2012-11-30",3,"BASELINE","Xanomeline Low Dose",NA
"01-701-1115",95,"TEMP","Temperature","97.4","F","36.33",36.33,"C","2012-12-12",3.5,"AMBUL ECG PLACEMENT","Xanomeline Low Dose",NA
"01-701-1115",96,"TEMP","Temperature","98.0","F","36.67",36.67,"C","2012-12-13",4,"WEEK 2","Xanomeline Low Dose",NA
"01-701-1115",97,"TEMP","Temperature","97.7","F","36.5",36.5,"C","2012-12-26",5,"WEEK 4","Xanomeline Low Dose",NA
"01-701-1115",98,"TEMP","Temperature","97.3","F","36.28",36.28,"C","2012-12-28",6,"AMBUL ECG REMOVAL","Xanomeline Low Dose",NA
"01-701-1115",99,"TEMP","Temperature","97.6","F","36.44",36.44,"C","2013-01-10",7,"WEEK 6","Xanomeline Low Dose",NA
"01-701-1115",100,"TEMP","Temperature","97.6","F","36.44",36.44,"C","2013-01-23",8,"WEEK 8","Xanomeline Low Dose",NA
"01-701-1115",101,"TEMP","Temperature","97.4","F","36.33",36.33,"C","2013-05-20",201,"RETRIEVAL","Xanomeline Low Dose",NA
"01-701-1115",102,"WEIGHT","Weight","173.5","LB","78.7",78.7,"kg","2012-11-23",1,"SCREENING 1","Xanomeline Low Dose",NA
"01-701-1115",103,"WEIGHT","Weight","174.0","LB","78.93",78.93,"kg","2012-11-30",3,"BASELINE","Xanomeline Low Dose",NA
"01-701-1115",104,"WEIGHT","Weight","174.0","LB","78.93",78.93,"kg","2012-12-13",4,"WEEK 2","Xanomeline Low Dose",NA
"01-701-1115",105,"WEIGHT","Weight","173.0","LB","78.47",78.47,"kg","2012-12-26",5,"WEEK 4","Xanomeline Low Dose",NA
"01-701-1115",106,"WEIGHT","Weight","173.0","LB","78.47",78.47,"kg","2013-01-10",7,"WEEK 6","Xanomeline Low Dose",NA
"01-701-1115",107,"WEIGHT","Weight","173.0","LB","78.47",78.47,"kg","2013-01-23",8,"WEEK 8","Xanomeline Low Dose",NA
"01-701-1118",1,"DIABP","Diastolic Blood Pressure","71","mmHg","71",71,"mmHg","2014-02-27",1,"SCREENING 1","Placebo",NA
"01-701-1118",2,"DIABP","Diastolic Blood Pressure","59","mmHg","59",59,"mmHg","2014-02-27",1,"SCREENING 1","Placebo",NA
"01-701-1118",3,"DIABP","Diastolic Blood Pressure","64","mmHg","64",64,"mmHg","2014-02-27",1,"SCREENING 1","Placebo",NA
"01-701-1118",4,"DIABP","Diastolic Blood Pressure","84","mmHg","84",84,"mmHg","2014-03-10",2,"SCREENING 2","Placebo",NA
"01-701-1118",5,"DIABP","Diastolic Blood Pressure","75","mmHg","75",75,"mmHg","2014-03-10",2,"SCREENING 2","Placebo",NA
"01-701-1118",6,"DIABP","Diastolic Blood Pressure","84","mmHg","84",84,"mmHg","2014-03-10",2,"SCREENING 2","Placebo",NA
"01-701-1118",7,"DIABP","Diastolic Blood Pressure","84","mmHg","84",84,"mmHg","2014-03-12",3,"BASELINE","Placebo",NA
"01-701-1118",8,"DIABP","Diastolic Blood Pressure","79","mmHg","79",79,"mmHg","2014-03-12",3,"BASELINE","Placebo",NA
"01-701-1118",9,"DIABP","Diastolic Blood Pressure","84","mmHg","84",84,"mmHg","2014-03-12",3,"BASELINE","Placebo",NA
"01-701-1118",10,"DIABP","Diastolic Blood Pressure","76","mmHg","76",76,"mmHg","2014-03-25",3.5,"AMBUL ECG PLACEMENT","Placebo",NA
"01-701-1118",11,"DIABP","Diastolic Blood Pressure","79","mmHg","79",79,"mmHg","2014-03-25",3.5,"AMBUL ECG PLACEMENT","Placebo",NA
"01-701-1118",12,"DIABP","Diastolic Blood Pressure","85","mmHg","85",85,"mmHg","2014-03-25",3.5,"AMBUL ECG PLACEMENT","Placebo",NA
"01-701-1118",13,"DIABP","Diastolic Blood Pressure","82","mmHg","82",82,"mmHg","2014-03-26",4,"WEEK 2","Placebo",NA
"01-701-1118",14,"DIABP","Diastolic Blood Pressure","69","mmHg","69",69,"mmHg","2014-03-26",4,"WEEK 2","Placebo",NA
"01-701-1118",15,"DIABP","Diastolic Blood Pressure","73","mmHg","73",73,"mmHg","2014-03-26",4,"WEEK 2","Placebo",NA
"01-701-1118",16,"DIABP","Diastolic Blood Pressure","75","mmHg","75",75,"mmHg","2014-04-09",5,"WEEK 4","Placebo",NA
"01-701-1118",17,"DIABP","Diastolic Blood Pressure","68","mmHg","68",68,"mmHg","2014-04-09",5,"WEEK 4","Placebo",NA
"01-701-1118",18,"DIABP","Diastolic Blood Pressure","80","mmHg","80",80,"mmHg","2014-04-09",5,"WEEK 4","Placebo",NA
"01-701-1118",19,"DIABP","Diastolic Blood Pressure","75","mmHg","75",75,"mmHg","2014-04-11",6,"AMBUL ECG REMOVAL","Placebo",NA
"01-701-1118",20,"DIABP","Diastolic Blood Pressure","72","mmHg","72",72,"mmHg","2014-04-11",6,"AMBUL ECG REMOVAL","Placebo",NA
"01-701-1118",21,"DIABP","Diastolic Blood Pressure","79","mmHg","79",79,"mmHg","2014-04-11",6,"AMBUL ECG REMOVAL","Placebo",NA
"01-701-1118",22,"DIABP","Diastolic Blood Pressure","62","mmHg","62",62,"mmHg","2014-04-23",7,"WEEK 6","Placebo",NA
"01-701-1118",23,"DIABP","Diastolic Blood Pressure","68","mmHg","68",68,"mmHg","2014-04-23",7,"WEEK 6","Placebo",NA
"01-701-1118",24,"DIABP","Diastolic Blood Pressure","68","mmHg","68",68,"mmHg","2014-04-23",7,"WEEK 6","Placebo",NA
"01-701-1118",25,"DIABP","Diastolic Blood Pressure","67","mmHg","67",67,"mmHg","2014-05-08",8,"WEEK 8","Placebo",NA
"01-701-1118",26,"DIABP","Diastolic Blood Pressure","72","mmHg","72",72,"mmHg","2014-05-08",8,"WEEK 8","Placebo",NA
"01-701-1118",27,"DIABP","Diastolic Blood Pressure","73","mmHg","73",73,"mmHg","2014-05-08",8,"WEEK 8","Placebo",NA
"01-701-1118",28,"DIABP","Diastolic Blood Pressure","72","mmHg","72",72,"mmHg","2014-06-05",9,"WEEK 12","Placebo",NA
"01-701-1118",29,"DIABP","Diastolic Blood Pressure","68","mmHg","68",68,"mmHg","2014-06-05",9,"WEEK 12","Placebo",NA
"01-701-1118",30,"DIABP","Diastolic Blood Pressure","72","mmHg","72",72,"mmHg","2014-06-05",9,"WEEK 12","Placebo",NA
"01-701-1118",31,"DIABP","Diastolic Blood Pressure","72","mmHg","72",72,"mmHg","2014-07-02",10,"WEEK 16","Placebo",NA
"01-701-1118",32,"DIABP","Diastolic Blood Pressure","68","mmHg","68",68,"mmHg","2014-07-02",10,"WEEK 16","Placebo",NA
"01-701-1118",33,"DIABP","Diastolic Blood Pressure","68","mmHg","68",68,"mmHg","2014-07-02",10,"WEEK 16","Placebo",NA
"01-701-1118",34,"DIABP","Diastolic Blood Pressure","82","mmHg","82",82,"mmHg","2014-07-30",11,"WEEK 20","Placebo",NA
"01-701-1118",35,"DIABP","Diastolic Blood Pressure","85","mmHg","85",85,"mmHg","2014-07-30",11,"WEEK 20","Placebo",NA
"01-701-1118",36,"DIABP","Diastolic Blood Pressure","89","mmHg","89",89,"mmHg","2014-07-30",11,"WEEK 20","Placebo",NA
"01-701-1118",37,"DIABP","Diastolic Blood Pressure","76","mmHg","76",76,"mmHg","2014-08-27",12,"WEEK 24","Placebo",NA
"01-701-1118",38,"DIABP","Diastolic Blood Pressure","72","mmHg","72",72,"mmHg","2014-08-27",12,"WEEK 24","Placebo",NA
"01-701-1118",39,"DIABP","Diastolic Blood Pressure","73","mmHg","73",73,"mmHg","2014-08-27",12,"WEEK 24","Placebo",NA
"01-701-1118",40,"DIABP","Diastolic Blood Pressure","74","mmHg","74",74,"mmHg","2014-09-09",13,"WEEK 26","Placebo",NA
"01-701-1118",41,"DIABP","Diastolic Blood Pressure","67","mmHg","67",67,"mmHg","2014-09-09",13,"WEEK 26","Placebo",NA
"01-701-1118",42,"DIABP","Diastolic Blood Pressure","72","mmHg","72",72,"mmHg","2014-09-09",13,"WEEK 26","Placebo",NA
"01-701-1118",43,"HEIGHT","Height","71.0","IN","180.34",180.34,"cm","2014-02-27",1,"SCREENING 1","Placebo",NA
"01-701-1118",44,"PULSE","Pulse Rate","65","BEATS/MIN","65",65,"BEATS/MIN","2014-02-27",1,"SCREENING 1","Placebo",NA
"01-701-1118",45,"PULSE","Pulse Rate","76","BEATS/MIN","76",76,"BEATS/MIN","2014-02-27",1,"SCREENING 1","Placebo",NA
"01-701-1118",46,"PULSE","Pulse Rate","76","BEATS/MIN","76",76,"BEATS/MIN","2014-02-27",1,"SCREENING 1","Placebo",NA
"01-701-1118",47,"PULSE","Pulse Rate","60","BEATS/MIN","60",60,"BEATS/MIN","2014-03-10",2,"SCREENING 2","Placebo",NA
"01-701-1118",48,"PULSE","Pulse Rate","68","BEATS/MIN","68",68,"BEATS/MIN","2014-03-10",2,"SCREENING 2","Placebo",NA
"01-701-1118",49,"PULSE","Pulse Rate","66","BEATS/MIN","66",66,"BEATS/MIN","2014-03-10",2,"SCREENING 2","Placebo",NA
"01-701-1118",50,"PULSE","Pulse Rate","62","BEATS/MIN","62",62,"BEATS/MIN","2014-03-12",3,"BASELINE","Placebo",NA
"01-701-1118",51,"PULSE","Pulse Rate","70","BEATS/MIN","70",70,"BEATS/MIN","2014-03-12",3,"BASELINE","Placebo",NA
"01-701-1118",52,"PULSE","Pulse Rate","70","BEATS/MIN","70",70,"BEATS/MIN","2014-03-12",3,"BASELINE","Placebo",NA
"01-701-1118",53,"PULSE","Pulse Rate","59","BEATS/MIN","59",59,"BEATS/MIN","2014-03-25",3.5,"AMBUL ECG PLACEMENT","Placebo",NA
"01-701-1118",54,"PULSE","Pulse Rate","72","BEATS/MIN","72",72,"BEATS/MIN","2014-03-25",3.5,"AMBUL ECG PLACEMENT","Placebo",NA
"01-701-1118",55,"PULSE","Pulse Rate","68","BEATS/MIN","68",68,"BEATS/MIN","2014-03-25",3.5,"AMBUL ECG PLACEMENT","Placebo",NA
"01-701-1118",56,"PULSE","Pulse Rate","62","BEATS/MIN","62",62,"BEATS/MIN","2014-03-26",4,"WEEK 2","Placebo",NA
"01-701-1118",57,"PULSE","Pulse Rate","73","BEATS/MIN","73",73,"BEATS/MIN","2014-03-26",4,"WEEK 2","Placebo",NA
"01-701-1118",58,"PULSE","Pulse Rate","68","BEATS/MIN","68",68,"BEATS/MIN","2014-03-26",4,"WEEK 2","Placebo",NA
"01-701-1118",59,"PULSE","Pulse Rate","64","BEATS/MIN","64",64,"BEATS/MIN","2014-04-09",5,"WEEK 4","Placebo",NA
"01-701-1118",60,"PULSE","Pulse Rate","72","BEATS/MIN","72",72,"BEATS/MIN","2014-04-09",5,"WEEK 4","Placebo",NA
"01-701-1118",61,"PULSE","Pulse Rate","81","BEATS/MIN","81",81,"BEATS/MIN","2014-04-09",5,"WEEK 4","Placebo",NA
"01-701-1118",62,"PULSE","Pulse Rate","67","BEATS/MIN","67",67,"BEATS/MIN","2014-04-11",6,"AMBUL ECG REMOVAL","Placebo",NA
"01-701-1118",63,"PULSE","Pulse Rate","81","BEATS/MIN","81",81,"BEATS/MIN","2014-04-11",6,"AMBUL ECG REMOVAL","Placebo",NA
"01-701-1118",64,"PULSE","Pulse Rate","84","BEATS/MIN","84",84,"BEATS/MIN","2014-04-11",6,"AMBUL ECG REMOVAL","Placebo",NA
"01-701-1118",65,"PULSE","Pulse Rate","74","BEATS/MIN","74",74,"BEATS/MIN","2014-04-23",7,"WEEK 6","Placebo",NA
"01-701-1118",66,"PULSE","Pulse Rate","77","BEATS/MIN","77",77,"BEATS/MIN","2014-04-23",7,"WEEK 6","Placebo",NA
"01-701-1118",67,"PULSE","Pulse Rate","79","BEATS/MIN","79",79,"BEATS/MIN","2014-04-23",7,"WEEK 6","Placebo",NA
"01-701-1118",68,"PULSE","Pulse Rate","65","BEATS/MIN","65",65,"BEATS/MIN","2014-05-08",8,"WEEK 8","Placebo",NA
"01-701-1118",69,"PULSE","Pulse Rate","83","BEATS/MIN","83",83,"BEATS/MIN","2014-05-08",8,"WEEK 8","Placebo",NA
"01-701-1118",70,"PULSE","Pulse Rate","80","BEATS/MIN","80",80,"BEATS/MIN","2014-05-08",8,"WEEK 8","Placebo",NA
"01-701-1118",71,"PULSE","Pulse Rate","75","BEATS/MIN","75",75,"BEATS/MIN","2014-06-05",9,"WEEK 12","Placebo",NA
"01-701-1118",72,"PULSE","Pulse Rate","89","BEATS/MIN","89",89,"BEATS/MIN","2014-06-05",9,"WEEK 12","Placebo",NA
"01-701-1118",73,"PULSE","Pulse Rate","89","BEATS/MIN","89",89,"BEATS/MIN","2014-06-05",9,"WEEK 12","Placebo",NA
"01-701-1118",74,"PULSE","Pulse Rate","70","BEATS/MIN","70",70,"BEATS/MIN","2014-07-02",10,"WEEK 16","Placebo",NA
"01-701-1118",75,"PULSE","Pulse Rate","78","BEATS/MIN","78",78,"BEATS/MIN","2014-07-02",10,"WEEK 16","Placebo",NA
"01-701-1118",76,"PULSE","Pulse Rate","78","BEATS/MIN","78",78,"BEATS/MIN","2014-07-02",10,"WEEK 16","Placebo",NA
"01-701-1118",77,"PULSE","Pulse Rate","72","BEATS/MIN","72",72,"BEATS/MIN","2014-07-30",11,"WEEK 20","Placebo",NA
"01-701-1118",78,"PULSE","Pulse Rate","87","BEATS/MIN","87",87,"BEATS/MIN","2014-07-30",11,"WEEK 20","Placebo",NA
"01-701-1118",79,"PULSE","Pulse Rate","85","BEATS/MIN","85",85,"BEATS/MIN","2014-07-30",11,"WEEK 20","Placebo",NA
"01-701-1118",80,"PULSE","Pulse Rate","61","BEATS/MIN","61",61,"BEATS/MIN","2014-08-27",12,"WEEK 24","Placebo",NA
"01-701-1118",81,"PULSE","Pulse Rate","74","BEATS/MIN","74",74,"BEATS/MIN","2014-08-27",12,"WEEK 24","Placebo",NA
"01-701-1118",82,"PULSE","Pulse Rate","75","BEATS/MIN","75",75,"BEATS/MIN","2014-08-27",12,"WEEK 24","Placebo",NA
"01-701-1118",83,"PULSE","Pulse Rate","65","BEATS/MIN","65",65,"BEATS/MIN","2014-09-09",13,"WEEK 26","Placebo",NA
"01-701-1118",84,"PULSE","Pulse Rate","75","BEATS/MIN","75",75,"BEATS/MIN","2014-09-09",13,"WEEK 26","Placebo",NA
"01-701-1118",85,"PULSE","Pulse Rate","75","BEATS/MIN","75",75,"BEATS/MIN","2014-09-09",13,"WEEK 26","Placebo",NA
"01-701-1118",86,"SYSBP","Systolic Blood Pressure","122","mmHg","122",122,"mmHg","2014-02-27",1,"SCREENING 1","Placebo",NA
"01-701-1118",87,"SYSBP","Systolic Blood Pressure","106","mmHg","106",106,"mmHg","2014-02-27",1,"SCREENING 1","Placebo",NA
"01-701-1118",88,"SYSBP","Systolic Blood Pressure","107","mmHg","107",107,"mmHg","2014-02-27",1,"SCREENING 1","Placebo",NA
"01-701-1118",89,"SYSBP","Systolic Blood Pressure","138","mmHg","138",138,"mmHg","2014-03-10",2,"SCREENING 2","Placebo",NA
"01-701-1118",90,"SYSBP","Systolic Blood Pressure","137","mmHg","137",137,"mmHg","2014-03-10",2,"SCREENING 2","Placebo",NA
"01-701-1118",91,"SYSBP","Systolic Blood Pressure","138","mmHg","138",138,"mmHg","2014-03-10",2,"SCREENING 2","Placebo",NA
"01-701-1118",92,"SYSBP","Systolic Blood Pressure","137","mmHg","137",137,"mmHg","2014-03-12",3,"BASELINE","Placebo",NA
"01-701-1118",93,"SYSBP","Systolic Blood Pressure","129","mmHg","129",129,"mmHg","2014-03-12",3,"BASELINE","Placebo",NA
"01-701-1118",94,"SYSBP","Systolic Blood Pressure","123","mmHg","123",123,"mmHg","2014-03-12",3,"BASELINE","Placebo",NA
"01-701-1118",95,"SYSBP","Systolic Blood Pressure","131","mmHg","131",131,"mmHg","2014-03-25",3.5,"AMBUL ECG PLACEMENT","Placebo",NA
"01-701-1118",96,"SYSBP","Systolic Blood Pressure","126","mmHg","126",126,"mmHg","2014-03-25",3.5,"AMBUL ECG PLACEMENT","Placebo",NA
"01-701-1118",97,"SYSBP","Systolic Blood Pressure","138","mmHg","138",138,"mmHg","2014-03-25",3.5,"AMBUL ECG PLACEMENT","Placebo",NA
"01-701-1118",98,"SYSBP","Systolic Blood Pressure","129","mmHg","129",129,"mmHg","2014-03-26",4,"WEEK 2","Placebo",NA
"01-701-1118",99,"SYSBP","Systolic Blood Pressure","127","mmHg","127",127,"mmHg","2014-03-26",4,"WEEK 2","Placebo",NA
"01-701-1118",100,"SYSBP","Systolic Blood Pressure","131","mmHg","131",131,"mmHg","2014-03-26",4,"WEEK 2","Placebo",NA
"01-701-1118",101,"SYSBP","Systolic Blood Pressure","130","mmHg","130",130,"mmHg","2014-04-09",5,"WEEK 4","Placebo",NA
"01-701-1118",102,"SYSBP","Systolic Blood Pressure","114","mmHg","114",114,"mmHg","2014-04-09",5,"WEEK 4","Placebo",NA
"01-701-1118",103,"SYSBP","Systolic Blood Pressure","130","mmHg","130",130,"mmHg","2014-04-09",5,"WEEK 4","Placebo",NA
"01-701-1118",104,"SYSBP","Systolic Blood Pressure","130","mmHg","130",130,"mmHg","2014-04-11",6,"AMBUL ECG REMOVAL","Placebo",NA
"01-701-1118",105,"SYSBP","Systolic Blood Pressure","114","mmHg","114",114,"mmHg","2014-04-11",6,"AMBUL ECG REMOVAL","Placebo",NA
"01-701-1118",106,"SYSBP","Systolic Blood Pressure","122","mmHg","122",122,"mmHg","2014-04-11",6,"AMBUL ECG REMOVAL","Placebo",NA
"01-701-1118",107,"SYSBP","Systolic Blood Pressure","129","mmHg","129",129,"mmHg","2014-04-23",7,"WEEK 6","Placebo",NA
"01-701-1118",108,"SYSBP","Systolic Blood Pressure","122","mmHg","122",122,"mmHg","2014-04-23",7,"WEEK 6","Placebo",NA
"01-701-1118",109,"SYSBP","Systolic Blood Pressure","122","mmHg","122",122,"mmHg","2014-04-23",7,"WEEK 6","Placebo",NA
"01-701-1118",110,"SYSBP","Systolic Blood Pressure","126","mmHg","126",126,"mmHg","2014-05-08",8,"WEEK 8","Placebo",NA
"01-701-1118",111,"SYSBP","Systolic Blood Pressure","106","mmHg","106",106,"mmHg","2014-05-08",8,"WEEK 8","Placebo",NA
"01-701-1118",112,"SYSBP","Systolic Blood Pressure","131","mmHg","131",131,"mmHg","2014-05-08",8,"WEEK 8","Placebo",NA
"01-701-1118",113,"SYSBP","Systolic Blood Pressure","123","mmHg","123",123,"mmHg","2014-06-05",9,"WEEK 12","Placebo",NA
"01-701-1118",114,"SYSBP","Systolic Blood Pressure","130","mmHg","130",130,"mmHg","2014-06-05",9,"WEEK 12","Placebo",NA
"01-701-1118",115,"SYSBP","Systolic Blood Pressure","130","mmHg","130",130,"mmHg","2014-06-05",9,"WEEK 12","Placebo",NA
"01-701-1118",116,"SYSBP","Systolic Blood Pressure","122","mmHg","122",122,"mmHg","2014-07-02",10,"WEEK 16","Placebo",NA
"01-701-1118",117,"SYSBP","Systolic Blood Pressure","122","mmHg","122",122,"mmHg","2014-07-02",10,"WEEK 16","Placebo",NA
"01-701-1118",118,"SYSBP","Systolic Blood Pressure","114","mmHg","114",114,"mmHg","2014-07-02",10,"WEEK 16","Placebo",NA
"01-701-1118",119,"SYSBP","Systolic Blood Pressure","136","mmHg","136",136,"mmHg","2014-07-30",11,"WEEK 20","Placebo",NA
"01-701-1118",120,"SYSBP","Systolic Blood Pressure","154","mmHg","154",154,"mmHg","2014-07-30",11,"WEEK 20","Placebo",NA
"01-701-1118",121,"SYSBP","Systolic Blood Pressure","135","mmHg","135",135,"mmHg","2014-07-30",11,"WEEK 20","Placebo",NA
"01-701-1118",122,"SYSBP","Systolic Blood Pressure","130","mmHg","130",130,"mmHg","2014-08-27",12,"WEEK 24","Placebo",NA
"01-701-1118",123,"SYSBP","Systolic Blood Pressure","107","mmHg","107",107,"mmHg","2014-08-27",12,"WEEK 24","Placebo",NA
"01-701-1118",124,"SYSBP","Systolic Blood Pressure","116","mmHg","116",116,"mmHg","2014-08-27",12,"WEEK 24","Placebo",NA
"01-701-1118",125,"SYSBP","Systolic Blood Pressure","121","mmHg","121",121,"mmHg","2014-09-09",13,"WEEK 26","Placebo",NA
"01-701-1118",126,"SYSBP","Systolic Blood Pressure","113","mmHg","113",113,"mmHg","2014-09-09",13,"WEEK 26","Placebo",NA
"01-701-1118",127,"SYSBP","Systolic Blood Pressure","122","mmHg","122",122,"mmHg","2014-09-09",13,"WEEK 26","Placebo",NA
"01-701-1118",128,"TEMP","Temperature","98.4","F","36.89",36.89,"C","2014-02-27",1,"SCREENING 1","Placebo",NA
"01-701-1118",129,"TEMP","Temperature","97.5","F","36.39",36.39,"C","2014-03-10",2,"SCREENING 2","Placebo",NA
"01-701-1118",130,"TEMP","Temperature","97.5","F","36.39",36.39,"C","2014-03-12",3,"BASELINE","Placebo",NA
"01-701-1118",131,"TEMP","Temperature","97.6","F","36.44",36.44,"C","2014-03-25",3.5,"AMBUL ECG PLACEMENT","Placebo",NA
"01-701-1118",132,"TEMP","Temperature","98.1","F","36.72",36.72,"C","2014-03-26",4,"WEEK 2","Placebo",NA
"01-701-1118",133,"TEMP","Temperature","98.3","F","36.83",36.83,"C","2014-04-09",5,"WEEK 4","Placebo",NA
"01-701-1118",134,"TEMP","Temperature","97.9","F","36.61",36.61,"C","2014-04-11",6,"AMBUL ECG REMOVAL","Placebo",NA
"01-701-1118",135,"TEMP","Temperature","98.3","F","36.83",36.83,"C","2014-04-23",7,"WEEK 6","Placebo",NA
"01-701-1118",136,"TEMP","Temperature","98.0","F","36.67",36.67,"C","2014-05-08",8,"WEEK 8","Placebo",NA
"01-701-1118",137,"TEMP","Temperature","98.1","F","36.72",36.72,"C","2014-06-05",9,"WEEK 12","Placebo",NA
"01-701-1118",138,"TEMP","Temperature","97.2","F","36.22",36.22,"C","2014-07-02",10,"WEEK 16","Placebo",NA
"01-701-1118",139,"TEMP","Temperature","99.8","F","37.67",37.67,"C","2014-07-30",11,"WEEK 20","Placebo",NA
"01-701-1118",140,"TEMP","Temperature","98.6","F","37",37,"C","2014-08-27",12,"WEEK 24","Placebo",NA
"01-701-1118",141,"TEMP","Temperature","98.2","F","36.78",36.78,"C","2014-09-09",13,"WEEK 26","Placebo",NA
"01-701-1118",142,"WEIGHT","Weight","158.0","LB","71.67",71.67,"kg","2014-02-27",1,"SCREENING 1","Placebo",NA
"01-701-1118",143,"WEIGHT","Weight","157.0","LB","71.22",71.22,"kg","2014-03-12",3,"BASELINE","Placebo",NA
"01-701-1118",144,"WEIGHT","Weight","157.0","LB","71.22",71.22,"kg","2014-03-26",4,"WEEK 2","Placebo",NA
"01-701-1118",145,"WEIGHT","Weight","157.0","LB","71.22",71.22,"kg","2014-04-09",5,"WEEK 4","Placebo",NA
"01-701-1118",146,"WEIGHT","Weight","157.0","LB","71.22",71.22,"kg","2014-04-23",7,"WEEK 6","Placebo",NA
"01-701-1118",147,"WEIGHT","Weight","160.0","LB","72.58",72.58,"kg","2014-05-08",8,"WEEK 8","Placebo",NA
"01-701-1118",148,"WEIGHT","Weight","162.0","LB","73.48",73.48,"kg","2014-06-05",9,"WEEK 12","Placebo",NA
"01-701-1118",149,"WEIGHT","Weight","161.0","LB","73.03",73.03,"kg","2014-07-02",10,"WEEK 16","Placebo",NA
"01-701-1118",150,"WEIGHT","Weight","158.0","LB","71.67",71.67,"kg","2014-07-30",11,"WEEK 20","Placebo",NA
"01-701-1118",151,"WEIGHT","Weight","157.0","LB","71.22",71.22,"kg","2014-08-27",12,"WEEK 24","Placebo",NA
"01-701-1118",152,"WEIGHT","Weight","161.0","LB","73.03",73.03,"kg","2014-09-09",13,"WEEK 26","Placebo",NA
"01-701-1130",1,"DIABP","Diastolic Blood Pressure","68","mmHg","68",68,"mmHg","2014-02-09",1,"SCREENING 1","Placebo",NA
"01-701-1130",2,"DIABP","Diastolic Blood Pressure","71","mmHg","71",71,"mmHg","2014-02-09",1,"SCREENING 1","Placebo",NA
"01-701-1130",3,"DIABP","Diastolic Blood Pressure","70","mmHg","70",70,"mmHg","2014-02-09",1,"SCREENING 1","Placebo",NA
"01-701-1130",4,"DIABP","Diastolic Blood Pressure","71","mmHg","71",71,"mmHg","2014-02-13",2,"SCREENING 2","Placebo",NA
"01-701-1130",5,"DIABP","Diastolic Blood Pressure","64","mmHg","64",64,"mmHg","2014-02-13",2,"SCREENING 2","Placebo",NA
"01-701-1130",6,"DIABP","Diastolic Blood Pressure","76","mmHg","76",76,"mmHg","2014-02-13",2,"SCREENING 2","Placebo",NA
"01-701-1130",7,"DIABP","Diastolic Blood Pressure","74","mmHg","74",74,"mmHg","2014-02-15",3,"BASELINE","Placebo",NA
"01-701-1130",8,"DIABP","Diastolic Blood Pressure","67","mmHg","67",67,"mmHg","2014-02-15",3,"BASELINE","Placebo",NA
"01-701-1130",9,"DIABP","Diastolic Blood Pressure","68","mmHg","68",68,"mmHg","2014-02-15",3,"BASELINE","Placebo",NA
"01-701-1130",10,"DIABP","Diastolic Blood Pressure","75","mmHg","75",75,"mmHg","2014-02-28",3.5,"AMBUL ECG PLACEMENT","Placebo",NA
"01-701-1130",11,"DIABP","Diastolic Blood Pressure","72","mmHg","72",72,"mmHg","2014-02-28",3.5,"AMBUL ECG PLACEMENT","Placebo",NA
"01-701-1130",12,"DIABP","Diastolic Blood Pressure","73","mmHg","73",73,"mmHg","2014-02-28",3.5,"AMBUL ECG PLACEMENT","Placebo",NA
"01-701-1130",13,"DIABP","Diastolic Blood Pressure","72","mmHg","72",72,"mmHg","2014-03-01",4,"WEEK 2","Placebo",NA
"01-701-1130",14,"DIABP","Diastolic Blood Pressure","69","mmHg","69",69,"mmHg","2014-03-01",4,"WEEK 2","Placebo",NA
"01-701-1130",15,"DIABP","Diastolic Blood Pressure","65","mmHg","65",65,"mmHg","2014-03-01",4,"WEEK 2","Placebo",NA
"01-701-1130",16,"DIABP","Diastolic Blood Pressure","74","mmHg","74",74,"mmHg","2014-03-15",5,"WEEK 4","Placebo",NA
"01-701-1130",17,"DIABP","Diastolic Blood Pressure","80","mmHg","80",80,"mmHg","2014-03-15",5,"WEEK 4","Placebo",NA
"01-701-1130",18,"DIABP","Diastolic Blood Pressure","72","mmHg","72",72,"mmHg","2014-03-15",5,"WEEK 4","Placebo",NA
"01-701-1130",19,"DIABP","Diastolic Blood Pressure","68","mmHg","68",68,"mmHg","2014-03-17",6,"AMBUL ECG REMOVAL","Placebo",NA
"01-701-1130",20,"DIABP","Diastolic Blood Pressure","68","mmHg","68",68,"mmHg","2014-03-17",6,"AMBUL ECG REMOVAL","Placebo",NA
"01-701-1130",21,"DIABP","Diastolic Blood Pressure","75","mmHg","75",75,"mmHg","2014-03-17",6,"AMBUL ECG REMOVAL","Placebo",NA
"01-701-1130",22,"DIABP","Diastolic Blood Pressure","64","mmHg","64",64,"mmHg","2014-03-29",7,"WEEK 6","Placebo",NA
"01-701-1130",23,"DIABP","Diastolic Blood Pressure","70","mmHg","70",70,"mmHg","2014-03-29",7,"WEEK 6","Placebo",NA
"01-701-1130",24,"DIABP","Diastolic Blood Pressure","71","mmHg","71",71,"mmHg","2014-03-29",7,"WEEK 6","Placebo",NA
"01-701-1130",25,"DIABP","Diastolic Blood Pressure","75","mmHg","75",75,"mmHg","2014-04-12",8,"WEEK 8","Placebo",NA
"01-701-1130",26,"DIABP","Diastolic Blood Pressure","68","mmHg","68",68,"mmHg","2014-04-12",8,"WEEK 8","Placebo",NA
"01-701-1130",27,"DIABP","Diastolic Blood Pressure","76","mmHg","76",76,"mmHg","2014-04-12",8,"WEEK 8","Placebo",NA
"01-701-1130",28,"DIABP","Diastolic Blood Pressure","67","mmHg","67",67,"mmHg","2014-05-16",9,"WEEK 12","Placebo",NA
"01-701-1130",29,"DIABP","Diastolic Blood Pressure","60","mmHg","60",60,"mmHg","2014-05-16",9,"WEEK 12","Placebo",NA
"01-701-1130",30,"DIABP","Diastolic Blood Pressure","72","mmHg","72",72,"mmHg","2014-05-16",9,"WEEK 12","Placebo",NA
"01-701-1130",31,"DIABP","Diastolic Blood Pressure","76","mmHg","76",76,"mmHg","2014-06-07",10,"WEEK 16","Placebo",NA
"01-701-1130",32,"DIABP","Diastolic Blood Pressure","73","mmHg","73",73,"mmHg","2014-06-07",10,"WEEK 16","Placebo",NA
"01-701-1130",33,"DIABP","Diastolic Blood Pressure","76","mmHg","76",76,"mmHg","2014-06-07",10,"WEEK 16","Placebo",NA
"01-701-1130",34,"DIABP","Diastolic Blood Pressure","63","mmHg","63",63,"mmHg","2014-07-02",11,"WEEK 20","Placebo",NA
"01-701-1130",35,"DIABP","Diastolic Blood Pressure","64","mmHg","64",64,"mmHg","2014-07-02",11,"WEEK 20","Placebo",NA
"01-701-1130",36,"DIABP","Diastolic Blood Pressure","56","mmHg","56",56,"mmHg","2014-07-02",11,"WEEK 20","Placebo",NA
"01-701-1130",37,"DIABP","Diastolic Blood Pressure","76","mmHg","76",76,"mmHg","2014-08-02",12,"WEEK 24","Placebo",NA
"01-701-1130",38,"DIABP","Diastolic Blood Pressure","76","mmHg","76",76,"mmHg","2014-08-02",12,"WEEK 24","Placebo",NA
"01-701-1130",39,"DIABP","Diastolic Blood Pressure","80","mmHg","80",80,"mmHg","2014-08-02",12,"WEEK 24","Placebo",NA
"01-701-1130",40,"DIABP","Diastolic Blood Pressure","70","mmHg","70",70,"mmHg","2014-08-16",13,"WEEK 26","Placebo",NA
"01-701-1130",41,"DIABP","Diastolic Blood Pressure","91","mmHg","91",91,"mmHg","2014-08-16",13,"WEEK 26","Placebo",NA
"01-701-1130",42,"DIABP","Diastolic Blood Pressure","84","mmHg","84",84,"mmHg","2014-08-16",13,"WEEK 26","Placebo",NA
"01-701-1130",43,"HEIGHT","Height","66.8","IN","169.67",169.67,"cm","2014-02-09",1,"SCREENING 1","Placebo",NA
"01-701-1130",44,"PULSE","Pulse Rate","71","BEATS/MIN","71",71,"BEATS/MIN","2014-02-09",1,"SCREENING 1","Placebo",NA
"01-701-1130",45,"PULSE","Pulse Rate","76","BEATS/MIN","76",76,"BEATS/MIN","2014-02-09",1,"SCREENING 1","Placebo",NA
"01-701-1130",46,"PULSE","Pulse Rate","72","BEATS/MIN","72",72,"BEATS/MIN","2014-02-09",1,"SCREENING 1","Placebo",NA
"01-701-1130",47,"PULSE","Pulse Rate","67","BEATS/MIN","67",67,"BEATS/MIN","2014-02-13",2,"SCREENING 2","Placebo",NA
"01-701-1130",48,"PULSE","Pulse Rate","71","BEATS/MIN","71",71,"BEATS/MIN","2014-02-13",2,"SCREENING 2","Placebo",NA
"01-701-1130",49,"PULSE","Pulse Rate","70","BEATS/MIN","70",70,"BEATS/MIN","2014-02-13",2,"SCREENING 2","Placebo",NA
"01-701-1130",50,"PULSE","Pulse Rate","70","BEATS/MIN","70",70,"BEATS/MIN","2014-02-15",3,"BASELINE","Placebo",NA
"01-701-1130",51,"PULSE","Pulse Rate","77","BEATS/MIN","77",77,"BEATS/MIN","2014-02-15",3,"BASELINE","Placebo",NA
"01-701-1130",52,"PULSE","Pulse Rate","76","BEATS/MIN","76",76,"BEATS/MIN","2014-02-15",3,"BASELINE","Placebo",NA
"01-701-1130",53,"PULSE","Pulse Rate","65","BEATS/MIN","65",65,"BEATS/MIN","2014-02-28",3.5,"AMBUL ECG PLACEMENT","Placebo",NA
"01-701-1130",54,"PULSE","Pulse Rate","70","BEATS/MIN","70",70,"BEATS/MIN","2014-02-28",3.5,"AMBUL ECG PLACEMENT","Placebo",NA
"01-701-1130",55,"PULSE","Pulse Rate","68","BEATS/MIN","68",68,"BEATS/MIN","2014-02-28",3.5,"AMBUL ECG PLACEMENT","Placebo",NA
"01-701-1130",56,"PULSE","Pulse Rate","68","BEATS/MIN","68",68,"BEATS/MIN","2014-03-01",4,"WEEK 2","Placebo",NA
"01-701-1130",57,"PULSE","Pulse Rate","76","BEATS/MIN","76",76,"BEATS/MIN","2014-03-01",4,"WEEK 2","Placebo",NA
"01-701-1130",58,"PULSE","Pulse Rate","72","BEATS/MIN","72",72,"BEATS/MIN","2014-03-01",4,"WEEK 2","Placebo",NA
"01-701-1130",59,"PULSE","Pulse Rate","74","BEATS/MIN","74",74,"BEATS/MIN","2014-03-15",5,"WEEK 4","Placebo",NA
"01-701-1130",60,"PULSE","Pulse Rate","80","BEATS/MIN","80",80,"BEATS/MIN","2014-03-15",5,"WEEK 4","Placebo",NA
"01-701-1130",61,"PULSE","Pulse Rate","79","BEATS/MIN","79",79,"BEATS/MIN","2014-03-15",5,"WEEK 4","Placebo",NA
"01-701-1130",62,"PULSE","Pulse Rate","69","BEATS/MIN","69",69,"BEATS/MIN","2014-03-17",6,"AMBUL ECG REMOVAL","Placebo",NA
"01-701-1130",63,"PULSE","Pulse Rate","78","BEATS/MIN","78",78,"BEATS/MIN","2014-03-17",6,"AMBUL ECG REMOVAL","Placebo",NA
"01-701-1130",64,"PULSE","Pulse Rate","82","BEATS/MIN","82",82,"BEATS/MIN","2014-03-17",6,"AMBUL ECG REMOVAL","Placebo",NA
"01-701-1130",65,"PULSE","Pulse Rate","60","BEATS/MIN","60",60,"BEATS/MIN","2014-03-29",7,"WEEK 6","Placebo",NA
"01-701-1130",66,"PULSE","Pulse Rate","72","BEATS/MIN","72",72,"BEATS/MIN","2014-03-29",7,"WEEK 6","Placebo",NA
"01-701-1130",67,"PULSE","Pulse Rate","72","BEATS/MIN","72",72,"BEATS/MIN","2014-03-29",7,"WEEK 6","Placebo",NA
"01-701-1130",68,"PULSE","Pulse Rate","70","BEATS/MIN","70",70,"BEATS/MIN","2014-04-12",8,"WEEK 8","Placebo",NA
"01-701-1130",69,"PULSE","Pulse Rate","76","BEATS/MIN","76",76,"BEATS/MIN","2014-04-12",8,"WEEK 8","Placebo",NA
"01-701-1130",70,"PULSE","Pulse Rate","75","BEATS/MIN","75",75,"BEATS/MIN","2014-04-12",8,"WEEK 8","Placebo",NA
"01-701-1130",71,"PULSE","Pulse Rate","68","BEATS/MIN","68",68,"BEATS/MIN","2014-05-16",9,"WEEK 12","Placebo",NA
"01-701-1130",72,"PULSE","Pulse Rate","75","BEATS/MIN","75",75,"BEATS/MIN","2014-05-16",9,"WEEK 12","Placebo",NA
"01-701-1130",73,"PULSE","Pulse Rate","74","BEATS/MIN","74",74,"BEATS/MIN","2014-05-16",9,"WEEK 12","Placebo",NA
"01-701-1130",74,"PULSE","Pulse Rate","65","BEATS/MIN","65",65,"BEATS/MIN","2014-06-07",10,"WEEK 16","Placebo",NA
"01-701-1130",75,"PULSE","Pulse Rate","72","BEATS/MIN","72",72,"BEATS/MIN","2014-06-07",10,"WEEK 16","Placebo",NA
"01-701-1130",76,"PULSE","Pulse Rate","72","BEATS/MIN","72",72,"BEATS/MIN","2014-06-07",10,"WEEK 16","Placebo",NA
"01-701-1130",77,"PULSE","Pulse Rate","74","BEATS/MIN","74",74,"BEATS/MIN","2014-07-02",11,"WEEK 20","Placebo",NA
"01-701-1130",78,"PULSE","Pulse Rate","83","BEATS/MIN","83",83,"BEATS/MIN","2014-07-02",11,"WEEK 20","Placebo",NA
"01-701-1130",79,"PULSE","Pulse Rate","80","BEATS/MIN","80",80,"BEATS/MIN","2014-07-02",11,"WEEK 20","Placebo",NA
"01-701-1130",80,"PULSE","Pulse Rate","60","BEATS/MIN","60",60,"BEATS/MIN","2014-08-02",12,"WEEK 24","Placebo",NA
"01-701-1130",81,"PULSE","Pulse Rate","76","BEATS/MIN","76",76,"BEATS/MIN","2014-08-02",12,"WEEK 24","Placebo",NA
"01-701-1130",82,"PULSE","Pulse Rate","74","BEATS/MIN","74",74,"BEATS/MIN","2014-08-02",12,"WEEK 24","Placebo",NA
"01-701-1130",83,"PULSE","Pulse Rate","63","BEATS/MIN","63",63,"BEATS/MIN","2014-08-16",13,"WEEK 26","Placebo",NA
"01-701-1130",84,"PULSE","Pulse Rate","76","BEATS/MIN","76",76,"BEATS/MIN","2014-08-16",13,"WEEK 26","Placebo",NA
"01-701-1130",85,"PULSE","Pulse Rate","76","BEATS/MIN","76",76,"BEATS/MIN","2014-08-16",13,"WEEK 26","Placebo",NA
"01-701-1130",86,"SYSBP","Systolic Blood Pressure","130","mmHg","130",130,"mmHg","2014-02-09",1,"SCREENING 1","Placebo",NA
"01-701-1130",87,"SYSBP","Systolic Blood Pressure","121","mmHg","121",121,"mmHg","2014-02-09",1,"SCREENING 1","Placebo",NA
"01-701-1130",88,"SYSBP","Systolic Blood Pressure","130","mmHg","130",130,"mmHg","2014-02-09",1,"SCREENING 1","Placebo",NA
"01-701-1130",89,"SYSBP","Systolic Blood Pressure","135","mmHg","135",135,"mmHg","2014-02-13",2,"SCREENING 2","Placebo",NA
"01-701-1130",90,"SYSBP","Systolic Blood Pressure","122","mmHg","122",122,"mmHg","2014-02-13",2,"SCREENING 2","Placebo",NA
"01-701-1130",91,"SYSBP","Systolic Blood Pressure","131","mmHg","131",131,"mmHg","2014-02-13",2,"SCREENING 2","Placebo",NA
"01-701-1130",92,"SYSBP","Systolic Blood Pressure","122","mmHg","122",122,"mmHg","2014-02-15",3,"BASELINE","Placebo",NA
"01-701-1130",93,"SYSBP","Systolic Blood Pressure","122","mmHg","122",122,"mmHg","2014-02-15",3,"BASELINE","Placebo",NA
"01-701-1130",94,"SYSBP","Systolic Blood Pressure","130","mmHg","130",130,"mmHg","2014-02-15",3,"BASELINE","Placebo",NA
"01-701-1130",95,"SYSBP","Systolic Blood Pressure","145","mmHg","145",145,"mmHg","2014-02-28",3.5,"AMBUL ECG PLACEMENT","Placebo",NA
"01-701-1130",96,"SYSBP","Systolic Blood Pressure","138","mmHg","138",138,"mmHg","2014-02-28",3.5,"AMBUL ECG PLACEMENT","Placebo",NA
"01-701-1130",97,"SYSBP","Systolic Blood Pressure","131","mmHg","131",131,"mmHg","2014-02-28",3.5,"AMBUL ECG PLACEMENT","Placebo",NA
"01-701-1130",98,"SYSBP","Systolic Blood Pressure","123","mmHg","123",123,"mmHg","2014-03-01",4,"WEEK 2","Placebo",NA
"01-701-1130",99,"SYSBP","Systolic Blood Pressure","131","mmHg","131",131,"mmHg","2014-03-01",4,"WEEK 2","Placebo",NA
"01-701-1130",100,"SYSBP","Systolic Blood Pressure","123","mmHg","123",123,"mmHg","2014-03-01",4,"WEEK 2","Placebo",NA
"01-701-1130",101,"SYSBP","Systolic Blood Pressure","100","mmHg","100",100,"mmHg","2014-03-15",5,"WEEK 4","Placebo",NA
"01-701-1130",102,"SYSBP","Systolic Blood Pressure","123","mmHg","123",123,"mmHg","2014-03-15",5,"WEEK 4","Placebo",NA
"01-701-1130",103,"SYSBP","Systolic Blood Pressure","123","mmHg","123",123,"mmHg","2014-03-15",5,"WEEK 4","Placebo",NA
"01-701-1130",104,"SYSBP","Systolic Blood Pressure","115","mmHg","115",115,"mmHg","2014-03-17",6,"AMBUL ECG REMOVAL","Placebo",NA
"01-701-1130",105,"SYSBP","Systolic Blood Pressure","115","mmHg","115",115,"mmHg","2014-03-17",6,"AMBUL ECG REMOVAL","Placebo",NA
"01-701-1130",106,"SYSBP","Systolic Blood Pressure","122","mmHg","122",122,"mmHg","2014-03-17",6,"AMBUL ECG REMOVAL","Placebo",NA
"01-701-1130",107,"SYSBP","Systolic Blood Pressure","123","mmHg","123",123,"mmHg","2014-03-29",7,"WEEK 6","Placebo",NA
"01-701-1130",108,"SYSBP","Systolic Blood Pressure","121","mmHg","121",121,"mmHg","2014-03-29",7,"WEEK 6","Placebo",NA
"01-701-1130",109,"SYSBP","Systolic Blood Pressure","136","mmHg","136",136,"mmHg","2014-03-29",7,"WEEK 6","Placebo",NA
"01-701-1130",110,"SYSBP","Systolic Blood Pressure","145","mmHg","145",145,"mmHg","2014-04-12",8,"WEEK 8","Placebo",NA
"01-701-1130",111,"SYSBP","Systolic Blood Pressure","138","mmHg","138",138,"mmHg","2014-04-12",8,"WEEK 8","Placebo",NA
"01-701-1130",112,"SYSBP","Systolic Blood Pressure","146","mmHg","146",146,"mmHg","2014-04-12",8,"WEEK 8","Placebo",NA
"01-701-1130",113,"SYSBP","Systolic Blood Pressure","114","mmHg","114",114,"mmHg","2014-05-16",9,"WEEK 12","Placebo",NA
"01-701-1130",114,"SYSBP","Systolic Blood Pressure","117","mmHg","117",117,"mmHg","2014-05-16",9,"WEEK 12","Placebo",NA
"01-701-1130",115,"SYSBP","Systolic Blood Pressure","122","mmHg","122",122,"mmHg","2014-05-16",9,"WEEK 12","Placebo",NA
"01-701-1130",116,"SYSBP","Systolic Blood Pressure","123","mmHg","123",123,"mmHg","2014-06-07",10,"WEEK 16","Placebo",NA
"01-701-1130",117,"SYSBP","Systolic Blood Pressure","141","mmHg","141",141,"mmHg","2014-06-07",10,"WEEK 16","Placebo",NA
"01-701-1130",118,"SYSBP","Systolic Blood Pressure","155","mmHg","155",155,"mmHg","2014-06-07",10,"WEEK 16","Placebo",NA
"01-701-1130",119,"SYSBP","Systolic Blood Pressure","114","mmHg","114",114,"mmHg","2014-07-02",11,"WEEK 20","Placebo",NA
"01-701-1130",120,"SYSBP","Systolic Blood Pressure","107","mmHg","107",107,"mmHg","2014-07-02",11,"WEEK 20","Placebo",NA
"01-701-1130",121,"SYSBP","Systolic Blood Pressure","130","mmHg","130",130,"mmHg","2014-07-02",11,"WEEK 20","Placebo",NA
"01-701-1130",122,"SYSBP","Systolic Blood Pressure","124","mmHg","124",124,"mmHg","2014-08-02",12,"WEEK 24","Placebo",NA
"01-701-1130",123,"SYSBP","Systolic Blood Pressure","124","mmHg","124",124,"mmHg","2014-08-02",12,"WEEK 24","Placebo",NA
"01-701-1130",124,"SYSBP","Systolic Blood Pressure","139","mmHg","139",139,"mmHg","2014-08-02",12,"WEEK 24","Placebo",NA
"01-701-1130",125,"SYSBP","Systolic Blood Pressure","140","mmHg","140",140,"mmHg","2014-08-16",13,"WEEK 26","Placebo",NA
"01-701-1130",126,"SYSBP","Systolic Blood Pressure","130","mmHg","130",130,"mmHg","2014-08-16",13,"WEEK 26","Placebo",NA
"01-701-1130",127,"SYSBP","Systolic Blood Pressure","155","mmHg","155",155,"mmHg","2014-08-16",13,"WEEK 26","Placebo",NA
"01-701-1130",128,"TEMP","Temperature","97.6","F","36.44",36.44,"C","2014-02-09",1,"SCREENING 1","Placebo",NA
"01-701-1130",129,"TEMP","Temperature","96.3","F","35.72",35.72,"C","2014-02-13",2,"SCREENING 2","Placebo",NA
"01-701-1130",130,"TEMP","Temperature","96.8","F","36",36,"C","2014-02-15",3,"BASELINE","Placebo",NA
"01-701-1130",131,"TEMP","Temperature","97.5","F","36.39",36.39,"C","2014-02-28",3.5,"AMBUL ECG PLACEMENT","Placebo",NA
"01-701-1130",132,"TEMP","Temperature","98.2","F","36.78",36.78,"C","2014-03-01",4,"WEEK 2","Placebo",NA
"01-701-1130",133,"TEMP","Temperature","98.2","F","36.78",36.78,"C","2014-03-15",5,"WEEK 4","Placebo",NA
"01-701-1130",134,"TEMP","Temperature","98.0","F","36.67",36.67,"C","2014-03-17",6,"AMBUL ECG REMOVAL","Placebo",NA
"01-701-1130",135,"TEMP","Temperature","97.8","F","36.56",36.56,"C","2014-03-29",7,"WEEK 6","Placebo",NA
"01-701-1130",136,"TEMP","Temperature","96.1","F","35.61",35.61,"C","2014-04-12",8,"WEEK 8","Placebo",NA
"01-701-1130",137,"TEMP","Temperature","98.2","F","36.78",36.78,"C","2014-05-16",9,"WEEK 12","Placebo",NA
"01-701-1130",138,"TEMP","Temperature","97.4","F","36.33",36.33,"C","2014-06-07",10,"WEEK 16","Placebo",NA
"01-701-1130",139,"TEMP","Temperature","97.3","F","36.28",36.28,"C","2014-07-02",11,"WEEK 20","Placebo",NA
"01-701-1130",140,"TEMP","Temperature","97.2","F","36.22",36.22,"C","2014-08-02",12,"WEEK 24","Placebo",NA
"01-701-1130",141,"TEMP","Temperature","97.1","F","36.17",36.17,"C","2014-08-16",13,"WEEK 26","Placebo",NA
"01-701-1130",142,"WEIGHT","Weight","175.0","LB","79.38",79.38,"kg","2014-02-09",1,"SCREENING 1","Placebo",NA
"01-701-1130",143,"WEIGHT","Weight","175.0","LB","79.38",79.38,"kg","2014-02-15",3,"BASELINE","Placebo",NA
"01-701-1130",144,"WEIGHT","Weight","175.0","LB","79.38",79.38,"kg","2014-03-01",4,"WEEK 2","Placebo",NA
"01-701-1130",145,"WEIGHT","Weight","172.0","LB","78.02",78.02,"kg","2014-03-15",5,"WEEK 4","Placebo",NA
"01-701-1130",146,"WEIGHT","Weight","172.0","LB","78.02",78.02,"kg","2014-03-29",7,"WEEK 6","Placebo",NA
"01-701-1130",147,"WEIGHT","Weight","176.0","LB","79.83",79.83,"kg","2014-04-12",8,"WEEK 8","Placebo",NA
"01-701-1130",148,"WEIGHT","Weight","173.0","LB","78.47",78.47,"kg","2014-05-16",9,"WEEK 12","Placebo",NA
"01-701-1130",149,"WEIGHT","Weight","173.0","LB","78.47",78.47,"kg","2014-06-07",10,"WEEK 16","Placebo",NA
"01-701-1130",150,"WEIGHT","Weight","174.0","LB","78.93",78.93,"kg","2014-07-02",11,"WEEK 20","Placebo",NA
"01-701-1130",151,"WEIGHT","Weight","170.0","LB","77.11",77.11,"kg","2014-08-02",12,"WEEK 24","Placebo",NA
"01-701-1130",152,"WEIGHT","Weight","171.0","LB","77.57",77.57,"kg","2014-08-16",13,"WEEK 26","Placebo",NA
"01-701-1133",1,"DIABP","Diastolic Blood Pressure","78","mmHg","78",78,"mmHg","2012-10-23",1,"SCREENING 1","Xanomeline High Dose",NA
"01-701-1133",2,"DIABP","Diastolic Blood Pressure","80","mmHg","80",80,"mmHg","2012-10-23",1,"SCREENING 1","Xanomeline High Dose",NA
"01-701-1133",3,"DIABP","Diastolic Blood Pressure","60","mmHg","60",60,"mmHg","2012-10-23",1,"SCREENING 1","Xanomeline High Dose",NA
"01-701-1133",4,"DIABP","Diastolic Blood Pressure","72","mmHg","72",72,"mmHg","2012-10-26",2,"SCREENING 2","Xanomeline High Dose",NA
"01-701-1133",5,"DIABP","Diastolic Blood Pressure","65","mmHg","65",65,"mmHg","2012-10-26",2,"SCREENING 2","Xanomeline High Dose",NA
"01-701-1133",6,"DIABP","Diastolic Blood Pressure","68","mmHg","68",68,"mmHg","2012-10-26",2,"SCREENING 2","Xanomeline High Dose",NA
"01-701-1133",7,"DIABP","Diastolic Blood Pressure","59","mmHg","59",59,"mmHg","2012-10-28",3,"BASELINE","Xanomeline High Dose",NA
"01-701-1133",8,"DIABP","Diastolic Blood Pressure","56","mmHg","56",56,"mmHg","2012-10-28",3,"BASELINE","Xanomeline High Dose",NA
"01-701-1133",9,"DIABP","Diastolic Blood Pressure","54","mmHg","54",54,"mmHg","2012-10-28",3,"BASELINE","Xanomeline High Dose",NA
"01-701-1133",10,"DIABP","Diastolic Blood Pressure","56","mmHg","56",56,"mmHg","2012-11-11",3.5,"AMBUL ECG PLACEMENT","Xanomeline High Dose",NA
"01-701-1133",11,"DIABP","Diastolic Blood Pressure","62","mmHg","62",62,"mmHg","2012-11-11",3.5,"AMBUL ECG PLACEMENT","Xanomeline High Dose",NA
"01-701-1133",12,"DIABP","Diastolic Blood Pressure","60","mmHg","60",60,"mmHg","2012-11-11",3.5,"AMBUL ECG PLACEMENT","Xanomeline High Dose",NA
"01-701-1133",13,"DIABP","Diastolic Blood Pressure","56","mmHg","56",56,"mmHg","2012-11-12",4,"WEEK 2","Xanomeline High Dose",NA
"01-701-1133",14,"DIABP","Diastolic Blood Pressure","59","mmHg","59",59,"mmHg","2012-11-12",4,"WEEK 2","Xanomeline High Dose",NA
"01-701-1133",15,"DIABP","Diastolic Blood Pressure","64","mmHg","64",64,"mmHg","2012-11-12",4,"WEEK 2","Xanomeline High Dose",NA
"01-701-1133",16,"DIABP","Diastolic Blood Pressure","69","mmHg","69",69,"mmHg","2012-11-26",5,"WEEK 4","Xanomeline High Dose",NA
"01-701-1133",17,"DIABP","Diastolic Blood Pressure","73","mmHg","73",73,"mmHg","2012-11-26",5,"WEEK 4","Xanomeline High Dose",NA
"01-701-1133",18,"DIABP","Diastolic Blood Pressure","58","mmHg","58",58,"mmHg","2012-11-26",5,"WEEK 4","Xanomeline High Dose",NA
"01-701-1133",19,"DIABP","Diastolic Blood Pressure","64","mmHg","64",64,"mmHg","2012-11-28",6,"AMBUL ECG REMOVAL","Xanomeline High Dose",NA
"01-701-1133",20,"DIABP","Diastolic Blood Pressure","56","mmHg","56",56,"mmHg","2012-11-28",6,"AMBUL ECG REMOVAL","Xanomeline High Dose",NA
"01-701-1133",21,"DIABP","Diastolic Blood Pressure","60","mmHg","60",60,"mmHg","2012-11-28",6,"AMBUL ECG REMOVAL","Xanomeline High Dose",NA
"01-701-1133",22,"DIABP","Diastolic Blood Pressure","55","mmHg","55",55,"mmHg","2012-12-11",7,"WEEK 6","Xanomeline High Dose",NA
"01-701-1133",23,"DIABP","Diastolic Blood Pressure","55","mmHg","55",55,"mmHg","2012-12-11",7,"WEEK 6","Xanomeline High Dose",NA
"01-701-1133",24,"DIABP","Diastolic Blood Pressure","55","mmHg","55",55,"mmHg","2012-12-11",7,"WEEK 6","Xanomeline High Dose",NA
"01-701-1133",25,"DIABP","Diastolic Blood Pressure","59","mmHg","59",59,"mmHg","2012-12-24",8,"WEEK 8","Xanomeline High Dose",NA
"01-701-1133",26,"DIABP","Diastolic Blood Pressure","56","mmHg","56",56,"mmHg","2012-12-24",8,"WEEK 8","Xanomeline High Dose",NA
"01-701-1133",27,"DIABP","Diastolic Blood Pressure","56","mmHg","56",56,"mmHg","2012-12-24",8,"WEEK 8","Xanomeline High Dose",NA
"01-701-1133",28,"DIABP","Diastolic Blood Pressure","56","mmHg","56",56,"mmHg","2013-01-22",9,"WEEK 12","Xanomeline High Dose",NA
"01-701-1133",29,"DIABP","Diastolic Blood Pressure","60","mmHg","60",60,"mmHg","2013-01-22",9,"WEEK 12","Xanomeline High Dose",NA
"01-701-1133",30,"DIABP","Diastolic Blood Pressure","60","mmHg","60",60,"mmHg","2013-01-22",9,"WEEK 12","Xanomeline High Dose",NA
"01-701-1133",31,"DIABP","Diastolic Blood Pressure","56","mmHg","56",56,"mmHg","2013-02-18",10,"WEEK 16","Xanomeline High Dose",NA
"01-701-1133",32,"DIABP","Diastolic Blood Pressure","60","mmHg","60",60,"mmHg","2013-02-18",10,"WEEK 16","Xanomeline High Dose",NA
"01-701-1133",33,"DIABP","Diastolic Blood Pressure","79","mmHg","79",79,"mmHg","2013-02-18",10,"WEEK 16","Xanomeline High Dose",NA
"01-701-1133",34,"DIABP","Diastolic Blood Pressure","77","mmHg","77",77,"mmHg","2013-03-18",11,"WEEK 20","Xanomeline High Dose",NA
"01-701-1133",35,"DIABP","Diastolic Blood Pressure","58","mmHg","58",58,"mmHg","2013-03-18",11,"WEEK 20","Xanomeline High Dose",NA
"01-701-1133",36,"DIABP","Diastolic Blood Pressure","64","mmHg","64",64,"mmHg","2013-03-18",11,"WEEK 20","Xanomeline High Dose",NA
"01-701-1133",37,"DIABP","Diastolic Blood Pressure","73","mmHg","73",73,"mmHg","2013-04-18",12,"WEEK 24","Xanomeline High Dose",NA
"01-701-1133",38,"DIABP","Diastolic Blood Pressure","64","mmHg","64",64,"mmHg","2013-04-18",12,"WEEK 24","Xanomeline High Dose",NA
"01-701-1133",39,"DIABP","Diastolic Blood Pressure","60","mmHg","60",60,"mmHg","2013-04-18",12,"WEEK 24","Xanomeline High Dose",NA
"01-701-1133",40,"DIABP","Diastolic Blood Pressure","66","mmHg","66",66,"mmHg","2013-04-29",13,"WEEK 26","Xanomeline High Dose",NA
"01-701-1133",41,"DIABP","Diastolic Blood Pressure","60","mmHg","60",60,"mmHg","2013-04-29",13,"WEEK 26","Xanomeline High Dose",NA
"01-701-1133",42,"DIABP","Diastolic Blood Pressure","60","mmHg","60",60,"mmHg","2013-04-29",13,"WEEK 26","Xanomeline High Dose",NA
"01-701-1133",43,"HEIGHT","Height","64.0","IN","162.56",162.56,"cm","2012-10-23",1,"SCREENING 1","Xanomeline High Dose",NA
"01-701-1133",44,"PULSE","Pulse Rate","52","BEATS/MIN","52",52,"BEATS/MIN","2012-10-23",1,"SCREENING 1","Xanomeline High Dose",NA
"01-701-1133",45,"PULSE","Pulse Rate","64","BEATS/MIN","64",64,"BEATS/MIN","2012-10-23",1,"SCREENING 1","Xanomeline High Dose",NA
"01-701-1133",46,"PULSE","Pulse Rate","61","BEATS/MIN","61",61,"BEATS/MIN","2012-10-23",1,"SCREENING 1","Xanomeline High Dose",NA
"01-701-1133",47,"PULSE","Pulse Rate","61","BEATS/MIN","61",61,"BEATS/MIN","2012-10-26",2,"SCREENING 2","Xanomeline High Dose",NA
"01-701-1133",48,"PULSE","Pulse Rate","54","BEATS/MIN","54",54,"BEATS/MIN","2012-10-26",2,"SCREENING 2","Xanomeline High Dose",NA
"01-701-1133",49,"PULSE","Pulse Rate","62","BEATS/MIN","62",62,"BEATS/MIN","2012-10-26",2,"SCREENING 2","Xanomeline High Dose",NA
"01-701-1133",50,"PULSE","Pulse Rate","70","BEATS/MIN","70",70,"BEATS/MIN","2012-10-28",3,"BASELINE","Xanomeline High Dose",NA
"01-701-1133",51,"PULSE","Pulse Rate","73","BEATS/MIN","73",73,"BEATS/MIN","2012-10-28",3,"BASELINE","Xanomeline High Dose",NA
"01-701-1133",52,"PULSE","Pulse Rate","64","BEATS/MIN","64",64,"BEATS/MIN","2012-10-28",3,"BASELINE","Xanomeline High Dose",NA
"01-701-1133",53,"PULSE","Pulse Rate","65","BEATS/MIN","65",65,"BEATS/MIN","2012-11-11",3.5,"AMBUL ECG PLACEMENT","Xanomeline High Dose",NA
"01-701-1133",54,"PULSE","Pulse Rate","74","BEATS/MIN","74",74,"BEATS/MIN","2012-11-11",3.5,"AMBUL ECG PLACEMENT","Xanomeline High Dose",NA
"01-701-1133",55,"PULSE","Pulse Rate","75","BEATS/MIN","75",75,"BEATS/MIN","2012-11-11",3.5,"AMBUL ECG PLACEMENT","Xanomeline High Dose",NA
"01-701-1133",56,"PULSE","Pulse Rate","59","BEATS/MIN","59",59,"BEATS/MIN","2012-11-12",4,"WEEK 2","Xanomeline High Dose",NA
"01-701-1133",57,"PULSE","Pulse Rate","64","BEATS/MIN","64",64,"BEATS/MIN","2012-11-12",4,"WEEK 2","Xanomeline High Dose",NA
"01-701-1133",58,"PULSE","Pulse Rate","66","BEATS/MIN","66",66,"BEATS/MIN","2012-11-12",4,"WEEK 2","Xanomeline High Dose",NA
"01-701-1133",59,"PULSE","Pulse Rate","64","BEATS/MIN","64",64,"BEATS/MIN","2012-11-26",5,"WEEK 4","Xanomeline High Dose",NA
"01-701-1133",60,"PULSE","Pulse Rate","68","BEATS/MIN","68",68,"BEATS/MIN","2012-11-26",5,"WEEK 4","Xanomeline High Dose",NA
"01-701-1133",61,"PULSE","Pulse Rate","61","BEATS/MIN","61",61,"BEATS/MIN","2012-11-26",5,"WEEK 4","Xanomeline High Dose",NA
"01-701-1133",62,"PULSE","Pulse Rate","66","BEATS/MIN","66",66,"BEATS/MIN","2012-11-28",6,"AMBUL ECG REMOVAL","Xanomeline High Dose",NA
"01-701-1133",63,"PULSE","Pulse Rate","67","BEATS/MIN","67",67,"BEATS/MIN","2012-11-28",6,"AMBUL ECG REMOVAL","Xanomeline High Dose",NA
"01-701-1133",64,"PULSE","Pulse Rate","72","BEATS/MIN","72",72,"BEATS/MIN","2012-11-28",6,"AMBUL ECG REMOVAL","Xanomeline High Dose",NA
"01-701-1133",65,"PULSE","Pulse Rate","63","BEATS/MIN","63",63,"BEATS/MIN","2012-12-11",7,"WEEK 6","Xanomeline High Dose",NA
"01-701-1133",66,"PULSE","Pulse Rate","61","BEATS/MIN","61",61,"BEATS/MIN","2012-12-11",7,"WEEK 6","Xanomeline High Dose",NA
"01-701-1133",67,"PULSE","Pulse Rate","62","BEATS/MIN","62",62,"BEATS/MIN","2012-12-11",7,"WEEK 6","Xanomeline High Dose",NA
"01-701-1133",68,"PULSE","Pulse Rate","57","BEATS/MIN","57",57,"BEATS/MIN","2012-12-24",8,"WEEK 8","Xanomeline High Dose",NA
"01-701-1133",69,"PULSE","Pulse Rate","61","BEATS/MIN","61",61,"BEATS/MIN","2012-12-24",8,"WEEK 8","Xanomeline High Dose",NA
"01-701-1133",70,"PULSE","Pulse Rate","62","BEATS/MIN","62",62,"BEATS/MIN","2012-12-24",8,"WEEK 8","Xanomeline High Dose",NA
"01-701-1133",71,"PULSE","Pulse Rate","79","BEATS/MIN","79",79,"BEATS/MIN","2013-01-22",9,"WEEK 12","Xanomeline High Dose",NA
"01-701-1133",72,"PULSE","Pulse Rate","88","BEATS/MIN","88",88,"BEATS/MIN","2013-01-22",9,"WEEK 12","Xanomeline High Dose",NA
"01-701-1133",73,"PULSE","Pulse Rate","82","BEATS/MIN","82",82,"BEATS/MIN","2013-01-22",9,"WEEK 12","Xanomeline High Dose",NA
"01-701-1133",74,"PULSE","Pulse Rate","70","BEATS/MIN","70",70,"BEATS/MIN","2013-02-18",10,"WEEK 16","Xanomeline High Dose",NA
"01-701-1133",75,"PULSE","Pulse Rate","72","BEATS/MIN","72",72,"BEATS/MIN","2013-02-18",10,"WEEK 16","Xanomeline High Dose",NA
"01-701-1133",76,"PULSE","Pulse Rate","74","BEATS/MIN","74",74,"BEATS/MIN","2013-02-18",10,"WEEK 16","Xanomeline High Dose",NA
"01-701-1133",77,"PULSE","Pulse Rate","77","BEATS/MIN","77",77,"BEATS/MIN","2013-03-18",11,"WEEK 20","Xanomeline High Dose",NA
"01-701-1133",78,"PULSE","Pulse Rate","81","BEATS/MIN","81",81,"BEATS/MIN","2013-03-18",11,"WEEK 20","Xanomeline High Dose",NA
"01-701-1133",79,"PULSE","Pulse Rate","80","BEATS/MIN","80",80,"BEATS/MIN","2013-03-18",11,"WEEK 20","Xanomeline High Dose",NA
"01-701-1133",80,"PULSE","Pulse Rate","57","BEATS/MIN","57",57,"BEATS/MIN","2013-04-18",12,"WEEK 24","Xanomeline High Dose",NA
"01-701-1133",81,"PULSE","Pulse Rate","61","BEATS/MIN","61",61,"BEATS/MIN","2013-04-18",12,"WEEK 24","Xanomeline High Dose",NA
"01-701-1133",82,"PULSE","Pulse Rate","57","BEATS/MIN","57",57,"BEATS/MIN","2013-04-18",12,"WEEK 24","Xanomeline High Dose",NA
"01-701-1133",83,"PULSE","Pulse Rate","64","BEATS/MIN","64",64,"BEATS/MIN","2013-04-29",13,"WEEK 26","Xanomeline High Dose",NA
"01-701-1133",84,"PULSE","Pulse Rate","72","BEATS/MIN","72",72,"BEATS/MIN","2013-04-29",13,"WEEK 26","Xanomeline High Dose",NA
"01-701-1133",85,"PULSE","Pulse Rate","72","BEATS/MIN","72",72,"BEATS/MIN","2013-04-29",13,"WEEK 26","Xanomeline High Dose",NA
"01-701-1133",86,"SYSBP","Systolic Blood Pressure","155","mmHg","155",155,"mmHg","2012-10-23",1,"SCREENING 1","Xanomeline High Dose",NA
"01-701-1133",87,"SYSBP","Systolic Blood Pressure","146","mmHg","146",146,"mmHg","2012-10-23",1,"SCREENING 1","Xanomeline High Dose",NA
"01-701-1133",88,"SYSBP","Systolic Blood Pressure","139","mmHg","139",139,"mmHg","2012-10-23",1,"SCREENING 1","Xanomeline High Dose",NA
"01-701-1133",89,"SYSBP","Systolic Blood Pressure","150","mmHg","150",150,"mmHg","2012-10-26",2,"SCREENING 2","Xanomeline High Dose",NA
"01-701-1133",90,"SYSBP","Systolic Blood Pressure","152","mmHg","152",152,"mmHg","2012-10-26",2,"SCREENING 2","Xanomeline High Dose",NA
"01-701-1133",91,"SYSBP","Systolic Blood Pressure","139","mmHg","139",139,"mmHg","2012-10-26",2,"SCREENING 2","Xanomeline High Dose",NA
"01-701-1133",92,"SYSBP","Systolic Blood Pressure","160","mmHg","160",160,"mmHg","2012-10-28",3,"BASELINE","Xanomeline High Dose",NA
"01-701-1133",93,"SYSBP","Systolic Blood Pressure","138","mmHg","138",138,"mmHg","2012-10-28",3,"BASELINE","Xanomeline High Dose",NA
"01-701-1133",94,"SYSBP","Systolic Blood Pressure","154","mmHg","154",154,"mmHg","2012-10-28",3,"BASELINE","Xanomeline High Dose",NA
"01-701-1133",95,"SYSBP","Systolic Blood Pressure","137","mmHg","137",137,"mmHg","2012-11-11",3.5,"AMBUL ECG PLACEMENT","Xanomeline High Dose",NA
"01-701-1133",96,"SYSBP","Systolic Blood Pressure","123","mmHg","123",123,"mmHg","2012-11-11",3.5,"AMBUL ECG PLACEMENT","Xanomeline High Dose",NA
"01-701-1133",97,"SYSBP","Systolic Blood Pressure","124","mmHg","124",124,"mmHg","2012-11-11",3.5,"AMBUL ECG PLACEMENT","Xanomeline High Dose",NA
"01-701-1133",98,"SYSBP","Systolic Blood Pressure","169","mmHg","169",169,"mmHg","2012-11-12",4,"WEEK 2","Xanomeline High Dose",NA
"01-701-1133",99,"SYSBP","Systolic Blood Pressure","137","mmHg","137",137,"mmHg","2012-11-12",4,"WEEK 2","Xanomeline High Dose",NA
"01-701-1133",100,"SYSBP","Systolic Blood Pressure","144","mmHg","144",144,"mmHg","2012-11-12",4,"WEEK 2","Xanomeline High Dose",NA
"01-701-1133",101,"SYSBP","Systolic Blood Pressure","181","mmHg","181",181,"mmHg","2012-11-26",5,"WEEK 4","Xanomeline High Dose",NA
"01-701-1133",102,"SYSBP","Systolic Blood Pressure","155","mmHg","155",155,"mmHg","2012-11-26",5,"WEEK 4","Xanomeline High Dose",NA
"01-701-1133",103,"SYSBP","Systolic Blood Pressure","160","mmHg","160",160,"mmHg","2012-11-26",5,"WEEK 4","Xanomeline High Dose",NA
"01-701-1133",104,"SYSBP","Systolic Blood Pressure","154","mmHg","154",154,"mmHg","2012-11-28",6,"AMBUL ECG REMOVAL","Xanomeline High Dose",NA
"01-701-1133",105,"SYSBP","Systolic Blood Pressure","138","mmHg","138",138,"mmHg","2012-11-28",6,"AMBUL ECG REMOVAL","Xanomeline High Dose",NA
"01-701-1133",106,"SYSBP","Systolic Blood Pressure","146","mmHg","146",146,"mmHg","2012-11-28",6,"AMBUL ECG REMOVAL","Xanomeline High Dose",NA
"01-701-1133",107,"SYSBP","Systolic Blood Pressure","161","mmHg","161",161,"mmHg","2012-12-11",7,"WEEK 6","Xanomeline High Dose",NA
"01-701-1133",108,"SYSBP","Systolic Blood Pressure","137","mmHg","137",137,"mmHg","2012-12-11",7,"WEEK 6","Xanomeline High Dose",NA
"01-701-1133",109,"SYSBP","Systolic Blood Pressure","137","mmHg","137",137,"mmHg","2012-12-11",7,"WEEK 6","Xanomeline High Dose",NA
"01-701-1133",110,"SYSBP","Systolic Blood Pressure","145","mmHg","145",145,"mmHg","2012-12-24",8,"WEEK 8","Xanomeline High Dose",NA
"01-701-1133",111,"SYSBP","Systolic Blood Pressure","154","mmHg","154",154,"mmHg","2012-12-24",8,"WEEK 8","Xanomeline High Dose",NA
"01-701-1133",112,"SYSBP","Systolic Blood Pressure","146","mmHg","146",146,"mmHg","2012-12-24",8,"WEEK 8","Xanomeline High Dose",NA
"01-701-1133",113,"SYSBP","Systolic Blood Pressure","129","mmHg","129",129,"mmHg","2013-01-22",9,"WEEK 12","Xanomeline High Dose",NA
"01-701-1133",114,"SYSBP","Systolic Blood Pressure","145","mmHg","145",145,"mmHg","2013-01-22",9,"WEEK 12","Xanomeline High Dose",NA
"01-701-1133",115,"SYSBP","Systolic Blood Pressure","146","mmHg","146",146,"mmHg","2013-01-22",9,"WEEK 12","Xanomeline High Dose",NA
"01-701-1133",116,"SYSBP","Systolic Blood Pressure","169","mmHg","169",169,"mmHg","2013-02-18",10,"WEEK 16","Xanomeline High Dose",NA
"01-701-1133",117,"SYSBP","Systolic Blood Pressure","153","mmHg","153",153,"mmHg","2013-02-18",10,"WEEK 16","Xanomeline High Dose",NA
"01-701-1133",118,"SYSBP","Systolic Blood Pressure","144","mmHg","144",144,"mmHg","2013-02-18",10,"WEEK 16","Xanomeline High Dose",NA
"01-701-1133",119,"SYSBP","Systolic Blood Pressure","159","mmHg","159",159,"mmHg","2013-03-18",11,"WEEK 20","Xanomeline High Dose",NA
"01-701-1133",120,"SYSBP","Systolic Blood Pressure","158","mmHg","158",158,"mmHg","2013-03-18",11,"WEEK 20","Xanomeline High Dose",NA
"01-701-1133",121,"SYSBP","Systolic Blood Pressure","130","mmHg","130",130,"mmHg","2013-03-18",11,"WEEK 20","Xanomeline High Dose",NA
"01-701-1133",122,"SYSBP","Systolic Blood Pressure","147","mmHg","147",147,"mmHg","2013-04-18",12,"WEEK 24","Xanomeline High Dose",NA
"01-701-1133",123,"SYSBP","Systolic Blood Pressure","137","mmHg","137",137,"mmHg","2013-04-18",12,"WEEK 24","Xanomeline High Dose",NA
"01-701-1133",124,"SYSBP","Systolic Blood Pressure","138","mmHg","138",138,"mmHg","2013-04-18",12,"WEEK 24","Xanomeline High Dose",NA
"01-701-1133",125,"SYSBP","Systolic Blood Pressure","137","mmHg","137",137,"mmHg","2013-04-29",13,"WEEK 26","Xanomeline High Dose",NA
"01-701-1133",126,"SYSBP","Systolic Blood Pressure","137","mmHg","137",137,"mmHg","2013-04-29",13,"WEEK 26","Xanomeline High Dose",NA
"01-701-1133",127,"SYSBP","Systolic Blood Pressure","122","mmHg","122",122,"mmHg","2013-04-29",13,"WEEK 26","Xanomeline High Dose",NA
"01-701-1133",128,"TEMP","Temperature","97.7","F","36.5",36.5,"C","2012-10-23",1,"SCREENING 1","Xanomeline High Dose",NA
"01-701-1133",129,"TEMP","Temperature","97.5","F","36.39",36.39,"C","2012-10-26",2,"SCREENING 2","Xanomeline High Dose",NA
"01-701-1133",130,"TEMP","Temperature","97.5","F","36.39",36.39,"C","2012-10-28",3,"BASELINE","Xanomeline High Dose",NA
"01-701-1133",131,"TEMP","Temperature","98.5","F","36.94",36.94,"C","2012-11-11",3.5,"AMBUL ECG PLACEMENT","Xanomeline High Dose",NA
"01-701-1133",132,"TEMP","Temperature","97.8","F","36.56",36.56,"C","2012-11-12",4,"WEEK 2","Xanomeline High Dose",NA
"01-701-1133",133,"TEMP","Temperature","97.4","F","36.33",36.33,"C","2012-11-26",5,"WEEK 4","Xanomeline High Dose",NA
"01-701-1133",134,"TEMP","Temperature","97.5","F","36.39",36.39,"C","2012-11-28",6,"AMBUL ECG REMOVAL","Xanomeline High Dose",NA
"01-701-1133",135,"TEMP","Temperature","96.6","F","35.89",35.89,"C","2012-12-11",7,"WEEK 6","Xanomeline High Dose",NA
"01-701-1133",136,"TEMP","Temperature","97.8","F","36.56",36.56,"C","2012-12-24",8,"WEEK 8","Xanomeline High Dose",NA
"01-701-1133",137,"TEMP","Temperature","98.4","F","36.89",36.89,"C","2013-01-22",9,"WEEK 12","Xanomeline High Dose",NA
"01-701-1133",138,"TEMP","Temperature","98.3","F","36.83",36.83,"C","2013-02-18",10,"WEEK 16","Xanomeline High Dose",NA
"01-701-1133",139,"TEMP","Temperature","97.6","F","36.44",36.44,"C","2013-03-18",11,"WEEK 20","Xanomeline High Dose",NA
"01-701-1133",140,"TEMP","Temperature","098.9","F","37.17",37.17,"C","2013-04-18",12,"WEEK 24","Xanomeline High Dose",NA
"01-701-1133",141,"TEMP","Temperature","98.5","F","36.94",36.94,"C","2013-04-29",13,"WEEK 26","Xanomeline High Dose",NA
"01-701-1133",142,"WEIGHT","Weight","165.0","LB","74.84",74.84,"kg","2012-10-23",1,"SCREENING 1","Xanomeline High Dose",NA
"01-701-1133",143,"WEIGHT","Weight","164.0","LB","74.39",74.39,"kg","2012-10-28",3,"BASELINE","Xanomeline High Dose",NA
"01-701-1133",144,"WEIGHT","Weight","163.0","LB","73.94",73.94,"kg","2012-11-12",4,"WEEK 2","Xanomeline High Dose",NA
"01-701-1133",145,"WEIGHT","Weight","164.0","LB","74.39",74.39,"kg","2012-11-26",5,"WEEK 4","Xanomeline High Dose",NA
"01-701-1133",146,"WEIGHT","Weight","165.0","LB","74.84",74.84,"kg","2012-12-11",7,"WEEK 6","Xanomeline High Dose",NA
"01-701-1133",147,"WEIGHT","Weight","166.0","LB","75.3",75.3,"kg","2012-12-24",8,"WEEK 8","Xanomeline High Dose",NA
"01-701-1133",148,"WEIGHT","Weight","168.0","LB","76.2",76.2,"kg","2013-01-22",9,"WEEK 12","Xanomeline High Dose",NA
"01-701-1133",149,"WEIGHT","Weight","166.0","LB","75.3",75.3,"kg","2013-02-18",10,"WEEK 16","Xanomeline High Dose",NA
"01-701-1133",150,"WEIGHT","Weight","164","LB","74.39",74.39,"kg","2013-03-18",11,"WEEK 20","Xanomeline High Dose",NA
"01-701-1133",151,"WEIGHT","Weight","160.0","LB","72.58",72.58,"kg","2013-04-18",12,"WEEK 24","Xanomeline High Dose",NA
"01-701-1133",152,"WEIGHT","Weight","161.0","LB","73.03",73.03,"kg","2013-04-29",13,"WEEK 26","Xanomeline High Dose",NA
"01-701-1146",1,"DIABP","Diastolic Blood Pressure","48","mmHg","48",48,"mmHg","2013-05-07",1,"SCREENING 1","Xanomeline High Dose",NA
"01-701-1146",2,"DIABP","Diastolic Blood Pressure","56","mmHg","56",56,"mmHg","2013-05-07",1,"SCREENING 1","Xanomeline High Dose",NA
"01-701-1146",3,"DIABP","Diastolic Blood Pressure","59","mmHg","59",59,"mmHg","2013-05-07",1,"SCREENING 1","Xanomeline High Dose",NA
"01-701-1146",4,"DIABP","Diastolic Blood Pressure","50","mmHg","50",50,"mmHg","2013-05-18",2,"SCREENING 2","Xanomeline High Dose",NA
"01-701-1146",5,"DIABP","Diastolic Blood Pressure","54","mmHg","54",54,"mmHg","2013-05-18",2,"SCREENING 2","Xanomeline High Dose",NA
"01-701-1146",6,"DIABP","Diastolic Blood Pressure","58","mmHg","58",58,"mmHg","2013-05-18",2,"SCREENING 2","Xanomeline High Dose",NA
"01-701-1146",7,"DIABP","Diastolic Blood Pressure","51","mmHg","51",51,"mmHg","2013-05-20",3,"BASELINE","Xanomeline High Dose",NA
"01-701-1146",8,"DIABP","Diastolic Blood Pressure","57","mmHg","57",57,"mmHg","2013-05-20",3,"BASELINE","Xanomeline High Dose",NA
"01-701-1146",9,"DIABP","Diastolic Blood Pressure","51","mmHg","51",51,"mmHg","2013-05-20",3,"BASELINE","Xanomeline High Dose",NA
"01-701-1146",10,"DIABP","Diastolic Blood Pressure","51","mmHg","51",51,"mmHg","2013-06-02",3.5,"AMBUL ECG PLACEMENT","Xanomeline High Dose",NA
"01-701-1146",11,"DIABP","Diastolic Blood Pressure","52","mmHg","52",52,"mmHg","2013-06-02",3.5,"AMBUL ECG PLACEMENT","Xanomeline High Dose",NA
"01-701-1146",12,"DIABP","Diastolic Blood Pressure","62","mmHg","62",62,"mmHg","2013-06-02",3.5,"AMBUL ECG PLACEMENT","Xanomeline High Dose",NA
"01-701-1146",13,"DIABP","Diastolic Blood Pressure","57","mmHg","57",57,"mmHg","2013-06-03",4,"WEEK 2","Xanomeline High Dose",NA
"01-701-1146",14,"DIABP","Diastolic Blood Pressure","43","mmHg","43",43,"mmHg","2013-06-03",4,"WEEK 2","Xanomeline High Dose",NA
"01-701-1146",15,"DIABP","Diastolic Blood Pressure","58","mmHg","58",58,"mmHg","2013-06-03",4,"WEEK 2","Xanomeline High Dose",NA
"01-701-1146",16,"DIABP","Diastolic Blood Pressure","55","mmHg","55",55,"mmHg","2013-06-16",5,"WEEK 4","Xanomeline High Dose",NA
"01-701-1146",17,"DIABP","Diastolic Blood Pressure","59","mmHg","59",59,"mmHg","2013-06-16",5,"WEEK 4","Xanomeline High Dose",NA
"01-701-1146",18,"DIABP","Diastolic Blood Pressure","56","mmHg","56",56,"mmHg","2013-06-16",5,"WEEK 4","Xanomeline High Dose",NA
"01-701-1146",19,"DIABP","Diastolic Blood Pressure","45","mmHg","45",45,"mmHg","2013-06-18",6,"AMBUL ECG REMOVAL","Xanomeline High Dose",NA
"01-701-1146",20,"DIABP","Diastolic Blood Pressure","60","mmHg","60",60,"mmHg","2013-06-18",6,"AMBUL ECG REMOVAL","Xanomeline High Dose",NA
"01-701-1146",21,"DIABP","Diastolic Blood Pressure","56","mmHg","56",56,"mmHg","2013-06-18",6,"AMBUL ECG REMOVAL","Xanomeline High Dose",NA
"01-701-1146",22,"DIABP","Diastolic Blood Pressure","56","mmHg","56",56,"mmHg","2013-06-30",7,"WEEK 6","Xanomeline High Dose",NA
"01-701-1146",23,"DIABP","Diastolic Blood Pressure","60","mmHg","60",60,"mmHg","2013-06-30",7,"WEEK 6","Xanomeline High Dose",NA
"01-701-1146",24,"DIABP","Diastolic Blood Pressure","54","mmHg","54",54,"mmHg","2013-06-30",7,"WEEK 6","Xanomeline High Dose",NA
"01-701-1146",25,"HEIGHT","Height","58.0","IN","147.32",147.32,"cm","2013-05-07",1,"SCREENING 1","Xanomeline High Dose",NA
"01-701-1146",26,"PULSE","Pulse Rate","65","BEATS/MIN","65",65,"BEATS/MIN","2013-05-07",1,"SCREENING 1","Xanomeline High Dose",NA
"01-701-1146",27,"PULSE","Pulse Rate","76","BEATS/MIN","76",76,"BEATS/MIN","2013-05-07",1,"SCREENING 1","Xanomeline High Dose",NA
"01-701-1146",28,"PULSE","Pulse Rate","79","BEATS/MIN","79",79,"BEATS/MIN","2013-05-07",1,"SCREENING 1","Xanomeline High Dose",NA
"01-701-1146",29,"PULSE","Pulse Rate","62","BEATS/MIN","62",62,"BEATS/MIN","2013-05-18",2,"SCREENING 2","Xanomeline High Dose",NA
"01-701-1146",30,"PULSE","Pulse Rate","80","BEATS/MIN","80",80,"BEATS/MIN","2013-05-18",2,"SCREENING 2","Xanomeline High Dose",NA
"01-701-1146",31,"PULSE","Pulse Rate","74","BEATS/MIN","74",74,"BEATS/MIN","2013-05-18",2,"SCREENING 2","Xanomeline High Dose",NA
"01-701-1146",32,"PULSE","Pulse Rate","67","BEATS/MIN","67",67,"BEATS/MIN","2013-05-20",3,"BASELINE","Xanomeline High Dose",NA
"01-701-1146",33,"PULSE","Pulse Rate","72","BEATS/MIN","72",72,"BEATS/MIN","2013-05-20",3,"BASELINE","Xanomeline High Dose",NA
"01-701-1146",34,"PULSE","Pulse Rate","68","BEATS/MIN","68",68,"BEATS/MIN","2013-05-20",3,"BASELINE","Xanomeline High Dose",NA
"01-701-1146",35,"PULSE","Pulse Rate","65","BEATS/MIN","65",65,"BEATS/MIN","2013-06-02",3.5,"AMBUL ECG PLACEMENT","Xanomeline High Dose",NA
"01-701-1146",36,"PULSE","Pulse Rate","70","BEATS/MIN","70",70,"BEATS/MIN","2013-06-02",3.5,"AMBUL ECG PLACEMENT","Xanomeline High Dose",NA
"01-701-1146",37,"PULSE","Pulse Rate","67","BEATS/MIN","67",67,"BEATS/MIN","2013-06-02",3.5,"AMBUL ECG PLACEMENT","Xanomeline High Dose",NA
"01-701-1146",38,"PULSE","Pulse Rate","62","BEATS/MIN","62",62,"BEATS/MIN","2013-06-03",4,"WEEK 2","Xanomeline High Dose",NA
"01-701-1146",39,"PULSE","Pulse Rate","70","BEATS/MIN","70",70,"BEATS/MIN","2013-06-03",4,"WEEK 2","Xanomeline High Dose",NA
"01-701-1146",40,"PULSE","Pulse Rate","69","BEATS/MIN","69",69,"BEATS/MIN","2013-06-03",4,"WEEK 2","Xanomeline High Dose",NA
"01-701-1146",41,"PULSE","Pulse Rate","68","BEATS/MIN","68",68,"BEATS/MIN","2013-06-16",5,"WEEK 4","Xanomeline High Dose",NA
"01-701-1146",42,"PULSE","Pulse Rate","73","BEATS/MIN","73",73,"BEATS/MIN","2013-06-16",5,"WEEK 4","Xanomeline High Dose",NA
"01-701-1146",43,"PULSE","Pulse Rate","73","BEATS/MIN","73",73,"BEATS/MIN","2013-06-16",5,"WEEK 4","Xanomeline High Dose",NA
"01-701-1146",44,"PULSE","Pulse Rate","68","BEATS/MIN","68",68,"BEATS/MIN","2013-06-18",6,"AMBUL ECG REMOVAL","Xanomeline High Dose",NA
"01-701-1146",45,"PULSE","Pulse Rate","72","BEATS/MIN","72",72,"BEATS/MIN","2013-06-18",6,"AMBUL ECG REMOVAL","Xanomeline High Dose",NA
"01-701-1146",46,"PULSE","Pulse Rate","72","BEATS/MIN","72",72,"BEATS/MIN","2013-06-18",6,"AMBUL ECG REMOVAL","Xanomeline High Dose",NA
"01-701-1146",47,"PULSE","Pulse Rate","52","BEATS/MIN","52",52,"BEATS/MIN","2013-06-30",7,"WEEK 6","Xanomeline High Dose",NA
"01-701-1146",48,"PULSE","Pulse Rate","60","BEATS/MIN","60",60,"BEATS/MIN","2013-06-30",7,"WEEK 6","Xanomeline High Dose",NA
"01-701-1146",49,"PULSE","Pulse Rate","67","BEATS/MIN","67",67,"BEATS/MIN","2013-06-30",7,"WEEK 6","Xanomeline High Dose",NA
"01-701-1146",50,"SYSBP","Systolic Blood Pressure","114","mmHg","114",114,"mmHg","2013-05-07",1,"SCREENING 1","Xanomeline High Dose",NA
"01-701-1146",51,"SYSBP","Systolic Blood Pressure","122","mmHg","122",122,"mmHg","2013-05-07",1,"SCREENING 1","Xanomeline High Dose",NA
"01-701-1146",52,"SYSBP","Systolic Blood Pressure","122","mmHg","122",122,"mmHg","2013-05-07",1,"SCREENING 1","Xanomeline High Dose",NA
"01-701-1146",53,"SYSBP","Systolic Blood Pressure","114","mmHg","114",114,"mmHg","2013-05-18",2,"SCREENING 2","Xanomeline High Dose",NA
"01-701-1146",54,"SYSBP","Systolic Blood Pressure","107","mmHg","107",107,"mmHg","2013-05-18",2,"SCREENING 2","Xanomeline High Dose",NA
"01-701-1146",55,"SYSBP","Systolic Blood Pressure","108","mmHg","108",108,"mmHg","2013-05-18",2,"SCREENING 2","Xanomeline High Dose",NA
"01-701-1146",56,"SYSBP","Systolic Blood Pressure","128","mmHg","128",128,"mmHg","2013-05-20",3,"BASELINE","Xanomeline High Dose",NA
"01-701-1146",57,"SYSBP","Systolic Blood Pressure","124","mmHg","124",124,"mmHg","2013-05-20",3,"BASELINE","Xanomeline High Dose",NA
"01-701-1146",58,"SYSBP","Systolic Blood Pressure","115","mmHg","115",115,"mmHg","2013-05-20",3,"BASELINE","Xanomeline High Dose",NA
"01-701-1146",59,"SYSBP","Systolic Blood Pressure","113","mmHg","113",113,"mmHg","2013-06-02",3.5,"AMBUL ECG PLACEMENT","Xanomeline High Dose",NA
"01-701-1146",60,"SYSBP","Systolic Blood Pressure","136","mmHg","136",136,"mmHg","2013-06-02",3.5,"AMBUL ECG PLACEMENT","Xanomeline High Dose",NA
"01-701-1146",61,"SYSBP","Systolic Blood Pressure","121","mmHg","121",121,"mmHg","2013-06-02",3.5,"AMBUL ECG PLACEMENT","Xanomeline High Dose",NA
"01-701-1146",62,"SYSBP","Systolic Blood Pressure","108","mmHg","108",108,"mmHg","2013-06-03",4,"WEEK 2","Xanomeline High Dose",NA
"01-701-1146",63,"SYSBP","Systolic Blood Pressure","104","mmHg","104",104,"mmHg","2013-06-03",4,"WEEK 2","Xanomeline High Dose",NA
"01-701-1146",64,"SYSBP","Systolic Blood Pressure","116","mmHg","116",116,"mmHg","2013-06-03",4,"WEEK 2","Xanomeline High Dose",NA
"01-701-1146",65,"SYSBP","Systolic Blood Pressure","121","mmHg","121",121,"mmHg","2013-06-16",5,"WEEK 4","Xanomeline High Dose",NA
"01-701-1146",66,"SYSBP","Systolic Blood Pressure","129","mmHg","129",129,"mmHg","2013-06-16",5,"WEEK 4","Xanomeline High Dose",NA
"01-701-1146",67,"SYSBP","Systolic Blood Pressure","122","mmHg","122",122,"mmHg","2013-06-16",5,"WEEK 4","Xanomeline High Dose",NA
"01-701-1146",68,"SYSBP","Systolic Blood Pressure","108","mmHg","108",108,"mmHg","2013-06-18",6,"AMBUL ECG REMOVAL","Xanomeline High Dose",NA
"01-701-1146",69,"SYSBP","Systolic Blood Pressure","115","mmHg","115",115,"mmHg","2013-06-18",6,"AMBUL ECG REMOVAL","Xanomeline High Dose",NA
"01-701-1146",70,"SYSBP","Systolic Blood Pressure","122","mmHg","122",122,"mmHg","2013-06-18",6,"AMBUL ECG REMOVAL","Xanomeline High Dose",NA
"01-701-1146",71,"SYSBP","Systolic Blood Pressure","115","mmHg","115",115,"mmHg","2013-06-30",7,"WEEK 6","Xanomeline High Dose",NA
"01-701-1146",72,"SYSBP","Systolic Blood Pressure","107","mmHg","107",107,"mmHg","2013-06-30",7,"WEEK 6","Xanomeline High Dose",NA
"01-701-1146",73,"SYSBP","Systolic Blood Pressure","116","mmHg","116",116,"mmHg","2013-06-30",7,"WEEK 6","Xanomeline High Dose",NA
"01-701-1146",74,"TEMP","Temperature","99.2","F","37.33",37.33,"C","2013-05-07",1,"SCREENING 1","Xanomeline High Dose",NA
"01-701-1146",75,"TEMP","Temperature","97.3","F","36.28",36.28,"C","2013-05-18",2,"SCREENING 2","Xanomeline High Dose",NA
"01-701-1146",76,"TEMP","Temperature","97.6","F","36.44",36.44,"C","2013-05-20",3,"BASELINE","Xanomeline High Dose",NA
"01-701-1146",77,"TEMP","Temperature","97.8","F","36.56",36.56,"C","2013-06-02",3.5,"AMBUL ECG PLACEMENT","Xanomeline High Dose",NA
"01-701-1146",78,"TEMP","Temperature","97.9","F","36.61",36.61,"C","2013-06-03",4,"WEEK 2","Xanomeline High Dose",NA
"01-701-1146",79,"TEMP","Temperature","97.4","F","36.33",36.33,"C","2013-06-16",5,"WEEK 4","Xanomeline High Dose",NA
"01-701-1146",80,"TEMP","Temperature","98.6","F","37",37,"C","2013-06-18",6,"AMBUL ECG REMOVAL","Xanomeline High Dose",NA
"01-701-1146",81,"TEMP","Temperature","98.1","F","36.72",36.72,"C","2013-06-30",7,"WEEK 6","Xanomeline High Dose",NA
"01-701-1146",82,"WEIGHT","Weight","119.0","LB","53.98",53.98,"kg","2013-05-07",1,"SCREENING 1","Xanomeline High Dose",NA
"01-701-1146",83,"WEIGHT","Weight","119.0","LB","53.98",53.98,"kg","2013-05-20",3,"BASELINE","Xanomeline High Dose",NA
"01-701-1146",84,"WEIGHT","Weight","120.0","LB","54.43",54.43,"kg","2013-06-03",4,"WEEK 2","Xanomeline High Dose",NA
"01-701-1146",85,"WEIGHT","Weight","120.0","LB","54.43",54.43,"kg","2013-06-16",5,"WEEK 4","Xanomeline High Dose",NA
"01-701-1146",86,"WEIGHT","Weight","118.5","LB","53.75",53.75,"kg","2013-06-30",7,"WEEK 6","Xanomeline High Dose",NA
"01-701-1148",1,"DIABP","Diastolic Blood Pressure","69","mmHg","69",69,"mmHg","2013-08-14",1,"SCREENING 1","Xanomeline High Dose",NA
"01-701-1148",2,"DIABP","Diastolic Blood Pressure","60","mmHg","60",60,"mmHg","2013-08-14",1,"SCREENING 1","Xanomeline High Dose",NA
"01-701-1148",3,"DIABP","Diastolic Blood Pressure","68","mmHg","68",68,"mmHg","2013-08-14",1,"SCREENING 1","Xanomeline High Dose",NA
"01-701-1148",4,"DIABP","Diastolic Blood Pressure","76","mmHg","76",76,"mmHg","2013-08-21",2,"SCREENING 2","Xanomeline High Dose",NA
"01-701-1148",5,"DIABP","Diastolic Blood Pressure","68","mmHg","68",68,"mmHg","2013-08-21",2,"SCREENING 2","Xanomeline High Dose",NA
"01-701-1148",6,"DIABP","Diastolic Blood Pressure","69","mmHg","69",69,"mmHg","2013-08-21",2,"SCREENING 2","Xanomeline High Dose",NA
"01-701-1148",7,"DIABP","Diastolic Blood Pressure","70","mmHg","70",70,"mmHg","2013-08-23",3,"BASELINE","Xanomeline High Dose",NA
"01-701-1148",8,"DIABP","Diastolic Blood Pressure","58","mmHg","58",58,"mmHg","2013-08-23",3,"BASELINE","Xanomeline High Dose",NA
"01-701-1148",9,"DIABP","Diastolic Blood Pressure","76","mmHg","76",76,"mmHg","2013-08-23",3,"BASELINE","Xanomeline High Dose",NA
"01-701-1148",10,"DIABP","Diastolic Blood Pressure","80","mmHg","80",80,"mmHg","2013-09-04",3.5,"AMBUL ECG PLACEMENT","Xanomeline High Dose",NA
"01-701-1148",11,"DIABP","Diastolic Blood Pressure","73","mmHg","73",73,"mmHg","2013-09-04",3.5,"AMBUL ECG PLACEMENT","Xanomeline High Dose",NA
"01-701-1148",12,"DIABP","Diastolic Blood Pressure","67","mmHg","67",67,"mmHg","2013-09-04",3.5,"AMBUL ECG PLACEMENT","Xanomeline High Dose",NA
"01-701-1148",13,"DIABP","Diastolic Blood Pressure","69","mmHg","69",69,"mmHg","2013-09-05",4,"WEEK 2","Xanomeline High Dose",NA
"01-701-1148",14,"DIABP","Diastolic Blood Pressure","66","mmHg","66",66,"mmHg","2013-09-05",4,"WEEK 2","Xanomeline High Dose",NA
"01-701-1148",15,"DIABP","Diastolic Blood Pressure","73","mmHg","73",73,"mmHg","2013-09-05",4,"WEEK 2","Xanomeline High Dose",NA
"01-701-1148",16,"DIABP","Diastolic Blood Pressure","69","mmHg","69",69,"mmHg","2013-09-19",5,"WEEK 4","Xanomeline High Dose",NA
"01-701-1148",17,"DIABP","Diastolic Blood Pressure","65","mmHg","65",65,"mmHg","2013-09-19",5,"WEEK 4","Xanomeline High Dose",NA
"01-701-1148",18,"DIABP","Diastolic Blood Pressure","61","mmHg","61",61,"mmHg","2013-09-19",5,"WEEK 4","Xanomeline High Dose",NA
"01-701-1148",19,"DIABP","Diastolic Blood Pressure","76","mmHg","76",76,"mmHg","2013-09-21",6,"AMBUL ECG REMOVAL","Xanomeline High Dose",NA
"01-701-1148",20,"DIABP","Diastolic Blood Pressure","77","mmHg","77",77,"mmHg","2013-09-21",6,"AMBUL ECG REMOVAL","Xanomeline High Dose",NA
"01-701-1148",21,"DIABP","Diastolic Blood Pressure","79","mmHg","79",79,"mmHg","2013-09-21",6,"AMBUL ECG REMOVAL","Xanomeline High Dose",NA
"01-701-1148",22,"DIABP","Diastolic Blood Pressure","76","mmHg","76",76,"mmHg","2013-10-03",7,"WEEK 6","Xanomeline High Dose",NA
"01-701-1148",23,"DIABP","Diastolic Blood Pressure","60","mmHg","60",60,"mmHg","2013-10-03",7,"WEEK 6","Xanomeline High Dose",NA
"01-701-1148",24,"DIABP","Diastolic Blood Pressure","70","mmHg","70",70,"mmHg","2013-10-03",7,"WEEK 6","Xanomeline High Dose",NA
"01-701-1148",25,"DIABP","Diastolic Blood Pressure","75","mmHg","75",75,"mmHg","2013-10-18",8,"WEEK 8","Xanomeline High Dose",NA
"01-701-1148",26,"DIABP","Diastolic Blood Pressure","75","mmHg","75",75,"mmHg","2013-10-18",8,"WEEK 8","Xanomeline High Dose",NA
"01-701-1148",27,"DIABP","Diastolic Blood Pressure","77","mmHg","77",77,"mmHg","2013-10-18",8,"WEEK 8","Xanomeline High Dose",NA
"01-701-1148",28,"DIABP","Diastolic Blood Pressure","68","mmHg","68",68,"mmHg","2013-11-17",9,"WEEK 12","Xanomeline High Dose",NA
"01-701-1148",29,"DIABP","Diastolic Blood Pressure","69","mmHg","69",69,"mmHg","2013-11-17",9,"WEEK 12","Xanomeline High Dose",NA
"01-701-1148",30,"DIABP","Diastolic Blood Pressure","69","mmHg","69",69,"mmHg","2013-11-17",9,"WEEK 12","Xanomeline High Dose",NA
"01-701-1148",31,"DIABP","Diastolic Blood Pressure","68","mmHg","68",68,"mmHg","2013-12-13",10,"WEEK 16","Xanomeline High Dose",NA
"01-701-1148",32,"DIABP","Diastolic Blood Pressure","73","mmHg","73",73,"mmHg","2013-12-13",10,"WEEK 16","Xanomeline High Dose",NA
"01-701-1148",33,"DIABP","Diastolic Blood Pressure","76","mmHg","76",76,"mmHg","2013-12-13",10,"WEEK 16","Xanomeline High Dose",NA
"01-701-1148",34,"DIABP","Diastolic Blood Pressure","69","mmHg","69",69,"mmHg","2014-01-10",11,"WEEK 20","Xanomeline High Dose",NA
"01-701-1148",35,"DIABP","Diastolic Blood Pressure","63","mmHg","63",63,"mmHg","2014-01-10",11,"WEEK 20","Xanomeline High Dose",NA
"01-701-1148",36,"DIABP","Diastolic Blood Pressure","69","mmHg","69",69,"mmHg","2014-01-10",11,"WEEK 20","Xanomeline High Dose",NA
"01-701-1148",37,"DIABP","Diastolic Blood Pressure","64","mmHg","64",64,"mmHg","2014-02-08",12,"WEEK 24","Xanomeline High Dose",NA
"01-701-1148",38,"DIABP","Diastolic Blood Pressure","73","mmHg","73",73,"mmHg","2014-02-08",12,"WEEK 24","Xanomeline High Dose",NA
"01-701-1148",39,"DIABP","Diastolic Blood Pressure","73","mmHg","73",73,"mmHg","2014-02-08",12,"WEEK 24","Xanomeline High Dose",NA
"01-701-1148",40,"DIABP","Diastolic Blood Pressure","68","mmHg","68",68,"mmHg","2014-02-20",13,"WEEK 26","Xanomeline High Dose",NA
"01-701-1148",41,"DIABP","Diastolic Blood Pressure","73","mmHg","73",73,"mmHg","2014-02-20",13,"WEEK 26","Xanomeline High Dose",NA
"01-701-1148",42,"DIABP","Diastolic Blood Pressure","68","mmHg","68",68,"mmHg","2014-02-20",13,"WEEK 26","Xanomeline High Dose",NA
"01-701-1148",43,"HEIGHT","Height","069.0","IN","175.26",175.26,"cm","2013-08-14",1,"SCREENING 1","Xanomeline High Dose",NA
"01-701-1148",44,"PULSE","Pulse Rate","50","BEATS/MIN","50",50,"BEATS/MIN","2013-08-14",1,"SCREENING 1","Xanomeline High Dose",NA
"01-701-1148",45,"PULSE","Pulse Rate","66","BEATS/MIN","66",66,"BEATS/MIN","2013-08-14",1,"SCREENING 1","Xanomeline High Dose",NA
"01-701-1148",46,"PULSE","Pulse Rate","69","BEATS/MIN","69",69,"BEATS/MIN","2013-08-14",1,"SCREENING 1","Xanomeline High Dose",NA
"01-701-1148",47,"PULSE","Pulse Rate","54","BEATS/MIN","54",54,"BEATS/MIN","2013-08-21",2,"SCREENING 2","Xanomeline High Dose",NA
"01-701-1148",48,"PULSE","Pulse Rate","57","BEATS/MIN","57",57,"BEATS/MIN","2013-08-21",2,"SCREENING 2","Xanomeline High Dose",NA
"01-701-1148",49,"PULSE","Pulse Rate","67","BEATS/MIN","67",67,"BEATS/MIN","2013-08-21",2,"SCREENING 2","Xanomeline High Dose",NA
"01-701-1148",50,"PULSE","Pulse Rate","58","BEATS/MIN","58",58,"BEATS/MIN","2013-08-23",3,"BASELINE","Xanomeline High Dose",NA
"01-701-1148",51,"PULSE","Pulse Rate","73","BEATS/MIN","73",73,"BEATS/MIN","2013-08-23",3,"BASELINE","Xanomeline High Dose",NA
"01-701-1148",52,"PULSE","Pulse Rate","70","BEATS/MIN","70",70,"BEATS/MIN","2013-08-23",3,"BASELINE","Xanomeline High Dose",NA
"01-701-1148",53,"PULSE","Pulse Rate","75","BEATS/MIN","75",75,"BEATS/MIN","2013-09-04",3.5,"AMBUL ECG PLACEMENT","Xanomeline High Dose",NA
"01-701-1148",54,"PULSE","Pulse Rate","80","BEATS/MIN","80",80,"BEATS/MIN","2013-09-04",3.5,"AMBUL ECG PLACEMENT","Xanomeline High Dose",NA
"01-701-1148",55,"PULSE","Pulse Rate","80","BEATS/MIN","80",80,"BEATS/MIN","2013-09-04",3.5,"AMBUL ECG PLACEMENT","Xanomeline High Dose",NA
"01-701-1148",56,"PULSE","Pulse Rate","74","BEATS/MIN","74",74,"BEATS/MIN","2013-09-05",4,"WEEK 2","Xanomeline High Dose",NA
"01-701-1148",57,"PULSE","Pulse Rate","86","BEATS/MIN","86",86,"BEATS/MIN","2013-09-05",4,"WEEK 2","Xanomeline High Dose",NA
"01-701-1148",58,"PULSE","Pulse Rate","81","BEATS/MIN","81",81,"BEATS/MIN","2013-09-05",4,"WEEK 2","Xanomeline High Dose",NA
"01-701-1148",59,"PULSE","Pulse Rate","72","BEATS/MIN","72",72,"BEATS/MIN","2013-09-19",5,"WEEK 4","Xanomeline High Dose",NA
"01-701-1148",60,"PULSE","Pulse Rate","83","BEATS/MIN","83",83,"BEATS/MIN","2013-09-19",5,"WEEK 4","Xanomeline High Dose",NA
"01-701-1148",61,"PULSE","Pulse Rate","84","BEATS/MIN","84",84,"BEATS/MIN","2013-09-19",5,"WEEK 4","Xanomeline High Dose",NA
"01-701-1148",62,"PULSE","Pulse Rate","70","BEATS/MIN","70",70,"BEATS/MIN","2013-09-21",6,"AMBUL ECG REMOVAL","Xanomeline High Dose",NA
"01-701-1148",63,"PULSE","Pulse Rate","76","BEATS/MIN","76",76,"BEATS/MIN","2013-09-21",6,"AMBUL ECG REMOVAL","Xanomeline High Dose",NA
"01-701-1148",64,"PULSE","Pulse Rate","77","BEATS/MIN","77",77,"BEATS/MIN","2013-09-21",6,"AMBUL ECG REMOVAL","Xanomeline High Dose",NA
